time,gFx,gFy,gFz,ax,ay,az,wx,wy,wz,P(Pa)
,0.003,-0.102,-0.991,-0.03,-0.01,-0.05,-0.01,-0.01,0.01,101823.593
2022-10-03 7:2:41.4120,0.001,-0.101,-0.981,-0.02,-0.01,-0.07,-0.0,-0.0,0.009049154818058014,101823.593
2022-10-03 7:2:41.4170,0.003,-0.101,-0.986,-0.02,-0.02,-0.1,-0.0,-0.01,0.01,101823.593
2022-10-03 7:2:41.4260,0.001,-0.102,-0.985,-0.02,-0.02,-0.13,-0.01,-0.0,0.01,101823.593
2022-10-03 7:2:41.4360,-0.0,-0.102,-0.985,-0.03,-0.01,-0.08,-0.01,-0.01,0.01,101823.593
2022-10-03 7:2:41.4460,0.001,-0.103,-0.987,0.0,-0.01,-0.12,-0.01,-0.0,0.01,101823.593
2022-10-03 7:2:41.4560,0.001,-0.103,-0.985,-0.01,0.0,-0.11,-0.0,-0.0,0.01,101823.593
2022-10-03 7:2:41.4670,0.001,-0.103,-0.988,-0.01,0.0,-0.11,-0.0,-0.0,0.02,101823.593
2022-10-03 7:2:41.4770,0.0,-0.103,-0.988,-0.01,0.0,-0.08,-0.01,-0.01,0.01,101823.593
2022-10-03 7:2:41.4870,0.001,-0.103,-0.987,0.0,0.01,-0.07,-0.01,-0.01,0.02,101823.593
2022-10-03 7:2:41.4970,0.001,-0.102,-0.985,-0.01,0.0,-0.08,-0.0,-0.01,0.01,101823.593
2022-10-03 7:2:41.5070,0.002,-0.102,-0.985,-0.02,0.0,-0.1,-0.0,-0.01,0.01,101823.593
2022-10-03 7:2:41.5170,0.002,-0.1,-0.984,-0.02,-0.01,-0.1,-0.01,-0.0,0.01,101823.593
2022-10-03 7:2:41.5270,0.003,-0.1,-0.984,-0.02,-0.02,-0.1,-0.01,-0.0,0.01,101823.593
2022-10-03 7:2:41.5370,0.004,-0.1,-0.984,-0.03,-0.03,-0.11,-0.01,-0.01,0.01,101823.593
2022-10-03 7:2:41.5480,0.004,-0.099,-0.984,-0.04,-0.04,-0.11,-0.01,-0.01,0.01,101823.593
2022-10-03 7:2:41.5570,0.004,-0.1,-0.985,-0.04,-0.03,-0.1,-0.01,-0.0,0.01,101823.593
2022-10-03 7:2:41.5670,0.004,-0.099,-0.985,-0.04,-0.03,-0.1,-0.0,-0.01,0.01,101823.593
2022-10-03 7:2:41.5770,0.004,-0.098,-0.985,-0.04,-0.03,-0.1,-0.01,-0.0,0.01,101823.593
2022-10-03 7:2:41.5870,0.003,-0.098,-0.986,-0.03,-0.05,-0.09,-0.01,-0.01,0.01,101823.593
2022-10-03 7:2:41.5960,0.003,-0.099,-0.986,-0.03,-0.05,-0.09,-0.01,-0.0,0.02,101823.593
2022-10-03 7:2:41.6060,0.003,-0.099,-0.987,-0.03,-0.04,-0.08,-0.01,-0.01,0.02,101823.593
2022-10-03 7:2:41.6170,0.002,-0.098,-0.986,-0.02,-0.04,-0.08,-0.01,-0.01,0.01,101823.593
2022-10-03 7:2:41.6260,0.001,-0.099,-0.986,-0.02,-0.04,-0.08,-0.01,-0.01,0.01,101823.593
2022-10-03 7:2:41.6360,0.001,-0.099,-0.986,-0.01,-0.05,-0.09,-0.0,-0.01,0.02,101823.593
2022-10-03 7:2:41.6460,0.002,-0.099,-0.986,-0.01,-0.04,-0.09,-0.01,-0.01,0.02,101823.593
2022-10-03 7:2:41.6560,0.002,-0.097,-0.985,-0.01,-0.04,-0.09,-0.01,-0.01,0.02,101823.593
2022-10-03 7:2:41.6660,0.002,-0.098,-0.986,-0.02,-0.05,-0.1,-0.01,-0.01,0.02,101823.593
2022-10-03 7:2:41.6760,0.001,-0.097,-0.985,-0.02,-0.05,-0.1,-0.01,-0.0,0.02,101823.593
2022-10-03 7:2:41.6860,0.002,-0.096,-0.984,-0.01,-0.06284689709544182,-0.09943073272705079,-0.01,-0.0,0.02,101823.593
2022-10-03 7:2:41.6960,0.002,-0.095,-0.985,-0.01,-0.07,-0.1,-0.01,-0.0,0.02,101823.593
2022-10-03 7:2:41.7060,0.003,-0.095,-0.986,-0.02,-0.07,-0.11,-0.0,-0.0,0.01,101823.593
2022-10-03 7:2:41.7160,0.003,-0.096,-0.986,-0.02,-0.08,-0.09,-0.0,-0.0,0.01,101823.593
2022-10-03 7:2:41.7270,0.004,-0.097,-0.987,-0.03,-0.08,-0.09,-0.01,-0.0,0.02,101823.593
2022-10-03 7:2:41.7360,0.002,-0.098,-0.988,-0.02,-0.06,-0.07,-0.0,-0.0,0.01,101823.593
2022-10-03 7:2:41.7460,0.002,-0.1,-0.989,-0.02,-0.04,-0.06,-0.0,-0.0,0.01,101823.593
2022-10-03 7:2:41.7560,0.002,-0.1,-0.988,-0.02,-0.04,-0.06,-0.01,-0.0,0.02,101823.593
2022-10-03 7:2:41.7660,0.001,-0.1,-0.988,-0.01,-0.03,-0.08,-0.01,-0.0,0.02,101823.593
2022-10-03 7:2:41.7760,-0.0,-0.099,-0.988,-0.01,-0.03,-0.08,-0.0,0.0,0.02,101823.593
2022-10-03 7:2:41.7850,-0.001,-0.1,-0.988,0.01,-0.04,-0.06,-0.01,0.0,0.02,101823.593
2022-10-03 7:2:41.7950,-0.003,-0.1,-0.988,0.03,-0.03,-0.07,-0.01,0.0,0.02,101823.593
2022-10-03 7:2:41.8050,-0.002,-0.098,-0.987,0.03,-0.03,-0.07,-0.01,-0.0,0.02,101823.593
2022-10-03 7:2:41.8150,-0.002,-0.098,-0.987,0.03,-0.04,-0.08,-0.0,0.0,0.01,101823.593
2022-10-03 7:2:41.8250,-0.001,-0.098,-0.987,0.02,-0.06,-0.07,-0.01,0.0,0.01,101823.593
2022-10-03 7:2:41.8360,-0.001,-0.097,-0.988,0.02,-0.06,-0.09,-0.0,0.0,0.02,101823.593
2022-10-03 7:2:41.8450,-0.001,-0.099,-0.989,0.02,-0.05,-0.07,-0.01,0.0,0.02,101823.593
2022-10-03 7:2:41.8560,-0.001,-0.099,-0.991,0.02,-0.05,-0.07,-0.0,0.0,0.02,101823.593
2022-10-03 7:2:41.8660,-0.0,-0.099,-0.991,0.02,-0.04,-0.04,-0.0,0.0,0.02,101823.593
2022-10-03 7:2:41.8760,0.0,-0.1,-0.993,0.02,-0.04,-0.04,-0.0,0.0,0.01,101823.593
2022-10-03 7:2:41.8860,0.002,-0.1,-0.992,0.0,-0.03,-0.03,-0.0,0.0,0.02,101823.593
2022-10-03 7:2:41.8960,0.003,-0.1,-0.992,-0.02,-0.04,-0.03,-0.0,0.0,0.01,101823.593
2022-10-03 7:2:41.9050,0.003,-0.101,-0.991,-0.02,-0.04,-0.03,-0.01,0.0,0.01,101823.593
2022-10-03 7:2:41.9150,0.001,-0.102,-0.989,-0.01,-0.02,-0.05,-0.0,0.0,0.01,101823.593
2022-10-03 7:2:41.9250,-0.0,-0.103,-0.989,-0.01,-0.02,-0.05,-0.0,0.0,0.02,101823.593
2022-10-03 7:2:41.9350,0.002,-0.103,-0.99,0.01,-0.01,-0.05,-0.0,0.0,0.01,101823.593
2022-10-03 7:2:41.9450,0.001,-0.103,-0.991,0.01,-0.01,-0.05,-0.0,0.0,0.01,101823.593
2022-10-03 7:2:41.9550,-0.001,-0.103,-0.992,0.02,0.0,-0.04,-0.0,-0.0,0.01,101823.593
2022-10-03 7:2:41.9650,-0.002,-0.099,-0.995,0.03,-0.03,-0.01,-0.01,-0.01,0.01,101823.593
2022-10-03 7:2:41.9750,-0.006,-0.096,-0.999,0.03,-0.05751438260078431,0.02388353705406189,-0.01,-0.01,0.01,101823.593
2022-10-03 7:2:41.9850,-0.015,-0.092,-1.008,0.13,-0.09,0.08,0.01,0.0,0.01,101823.593
2022-10-03 7:2:41.9950,-0.037,-0.091,-0.986,0.13,-0.09,0.08,0.0,0.02,0.02,101823.593
2022-10-03 7:2:42.0050,-0.051,-0.1,-0.98,0.5,-0.07,-0.16,-0.01,0.05,0.02,101823.593
2022-10-03 7:2:42.0130,-0.038,-0.1,-0.965,0.5,-0.07,-0.16,0.0,0.05,0.02,101823.593
2022-10-03 7:2:42.0230,-0.001,-0.114,-0.969,0.17,0.02,-0.29,0.0,0.04,0.02,101823.593
2022-10-03 7:2:42.0330,0.022,-0.132,-0.973,0.17,0.02,-0.29,0.0,0.04,0.02,101823.593
2022-10-03 7:2:42.0430,0.042,-0.13,-0.976,-0.12,0.22,-0.25,-0.03,0.01,0.01,101823.593
2022-10-03 7:2:42.0530,0.061,-0.102,-1.0,-0.28,0.29,-0.16,-0.02,-0.01,0.0,101823.593
2022-10-03 7:2:42.0640,0.043,-0.08,-1.007,-0.53,0.11,-0.1,-0.01,-0.01,0.01,101823.593
2022-10-03 7:2:42.0740,0.003,-0.068,-1.009,-0.48,-0.18,0.13,0.0,-0.0,0.01,101823.593
2022-10-03 7:2:42.0840,-0.037,-0.071,-0.983,-0.17,-0.33,0.14,0.0,0.02,0.01,101823.593
2022-10-03 7:2:42.0940,-0.04,-0.08,-0.988,0.29,-0.34,-0.03,0.01,0.03,0.02,101823.593
2022-10-03 7:2:42.1040,-0.016,-0.092,-0.977,0.46,-0.28,-0.12,-0.0,0.03,0.02,101823.593
2022-10-03 7:2:42.1140,0.004,-0.097,-0.976,0.29,-0.15,-0.09,-0.01,0.03,0.02,101823.593
2022-10-03 7:2:42.1240,0.019,-0.097,-0.974,0.07,-0.09,-0.22,-0.01,0.01,0.01,101823.593
2022-10-03 7:2:42.1340,0.014,-0.094,-0.983,-0.11,-0.06,-0.19,-0.01,0.01,0.01,101823.593
2022-10-03 7:2:42.1440,0.004,-0.096,-0.974,-0.12,-0.09,-0.14,-0.0,0.01,0.01,101823.448
2022-10-03 7:2:42.1540,-0.008,-0.105,-0.986,0.09,-0.03,-0.11,-0.01,0.02,0.01,101823.448
2022-10-03 7:2:42.1640,-0.011,-0.112,-0.983,0.09,-0.03,-0.11,-0.01,0.02,0.01,101823.448
2022-10-03 7:2:42.1740,0.006,-0.112,-1.007,0.19,0.06,-0.14,-0.01,0.02,0.01,101823.448
2022-10-03 7:2:42.1840,0.02,-0.108,-1.0,-0.07921628694981336,0.06,0.07,-0.01,0.01,0.01,101823.448
2022-10-03 7:2:42.1940,0.03,-0.106,-0.999,-0.08,0.06,0.07,-0.01,0.0,0.01,101823.448
2022-10-03 7:2:42.2030,0.026,-0.101,-0.994,-0.21,0.03,0.06,-0.01,0.0,0.01,101823.448
2022-10-03 7:2:42.2140,0.018,-0.102,-0.987,-0.22,-0.02,-0.02,-0.0,-0.0,0.01,101823.448
2022-10-03 7:2:42.2230,0.016,-0.102,-0.983,-0.13,-0.02,-0.03,-0.01,-0.01,0.01,101823.448
2022-10-03 7:2:42.2330,0.009,-0.108,-0.974,-0.1,-0.02,-0.12,-0.01,-0.01,0.01,101823.448
2022-10-03 7:2:42.2430,0.002,-0.113,-0.97,-0.05,0.01,-0.15,-0.01,-0.01,0.01,101823.448
2022-10-03 7:2:42.2530,-0.008,-0.117,-0.97,0.01,0.07,-0.25,-0.01,0.01,0.02,101823.448
2022-10-03 7:2:42.2630,-0.005,-0.121,-0.977,0.11,0.11,-0.24,-0.01,0.01,0.02,101823.448
2022-10-03 7:2:42.2730,0.005,-0.124,-0.984,0.14,0.16,-0.22,-0.01,0.0,0.02,101823.448
2022-10-03 7:2:42.2830,0.007,-0.122,-0.985,0.0,0.18,-0.1,-0.01,-0.0,0.02,101823.448
2022-10-03 7:2:42.2930,0.006,-0.116,-0.98,0.0,0.18,-0.1,-0.01,-0.01,0.01,101823.448
2022-10-03 7:2:42.3030,-0.002,-0.112,-0.975,-0.01,0.15,-0.12,0.01,0.01,0.01,101823.448
2022-10-03 7:2:42.3130,0.021,-0.138,-0.959,0.0,0.24,-0.3,-0.02,-0.01,0.01,101823.448
2022-10-03 7:2:42.3230,0.027,-0.149,-1.003,0.0,0.24,-0.3,0.0,0.0,0.02,101823.448
2022-10-03 7:2:42.3330,-0.012,-0.141,-0.968,0.08,0.41,0.04,-0.02,0.02,0.02,101823.448
2022-10-03 7:2:42.3430,0.007,-0.121,-1.006,0.08,0.41,0.04,-0.03,0.0,0.02,101823.448
2022-10-03 7:2:42.3520,0.027,-0.109,-0.995,0.11,0.24,-0.21,-0.02,0.01,0.02,101823.448
2022-10-03 7:2:42.3620,0.036,-0.104,-1.0,-0.27,0.01,-0.07,-0.01,-0.02,0.02,101823.448
2022-10-03 7:2:42.3730,0.016,-0.109,-0.994,-0.19,0.03,0.12,-0.01,-0.0,0.02,101823.448
2022-10-03 7:2:42.3820,0.007,-0.113,-0.983,0.01,0.09,-0.16,-0.01,-0.01,0.01,101823.448
2022-10-03 7:2:42.3920,0.008,-0.1,-0.988,0.01,0.09,-0.16,-0.01,-0.02,0.01,101823.448
2022-10-03 7:2:42.4020,-0.027,-0.11,-0.967,-0.05,-0.01,-0.06,-0.01,0.03,0.02,101823.448
2022-10-03 7:2:42.4120,-0.01,-0.1,-0.959,0.22,0.08,-0.14,-0.02,-0.01,0.02,101823.448
2022-10-03 7:2:42.4220,0.009,-0.115,-0.972,0.29,-0.05,-0.4,-0.02,-0.01,0.02,101823.448
2022-10-03 7:2:42.4320,0.019,-0.102,-0.977,-0.07,0.01,-0.26,-0.01,-0.0,0.01,101823.448
2022-10-03 7:2:42.4420,0.015,-0.108,-0.999,-0.07,0.01,-0.26,-0.02,0.01,0.01,101823.448
2022-10-03 7:2:42.4520,0.008,-0.107,-0.997,-0.02,0.02,-0.03,-0.02,0.0,0.01,101823.448
2022-10-03 7:2:42.4620,0.008,-0.111,-1.005,-0.02,0.02,-0.03,-0.01,-0.0,0.01,101823.448
2022-10-03 7:2:42.4720,0.007,-0.083,-1.027,0.02,0.13,0.13,0.0,-0.0,0.0,101823.448
2022-10-03 7:2:42.4810,-0.008,-0.117,-1.014,0.04,-0.16,0.24,-0.0,0.01,0.0,101823.448
2022-10-03 7:2:42.4920,-0.001,-0.134,-0.94,0.25,0.45,-0.34,0.0,-0.02,0.01,101823.448
2022-10-03 7:2:42.5020,0.004,-0.116,-1.032,0.25,0.45,-0.34,-0.02,0.01,0.01,101823.448
2022-10-03 7:2:42.5110,0.007,-0.127,-0.962,0.11,0.24,-0.13,-0.01,-0.01,0.0,101823.448
2022-10-03 7:2:42.5210,0.006,-0.128,-1.001,-0.07,0.19,-0.08,0.0,0.01,0.01,101823.448
2022-10-03 7:2:42.5320,-0.008,-0.125,-0.948,-0.07,0.19,-0.08,0.01,0.01,0.01,101823.448
2022-10-03 7:2:42.5410,-0.003,-0.138,-1.02,0.17,0.3,-0.32,-0.01,0.02,0.01,101823.448
2022-10-03 7:2:42.5510,0.017,-0.149,-0.958,0.01,0.47,-0.32,0.0,0.02,0.01,101823.448
2022-10-03 7:2:42.5610,0.037,-0.151,-1.009,0.01,0.47,-0.32,-0.01,0.01,0.01,101823.448
2022-10-03 7:2:42.5710,0.035,-0.156,-0.98,-0.22,0.4,0.09,-0.01,0.01,0.01,101823.448
2022-10-03 7:2:42.5810,0.031,-0.143,-1.002,-0.2,0.46,0.06,-0.01,0.01,0.01,101823.448
2022-10-03 7:2:42.5910,0.032,-0.138,-1.012,-0.2,0.46,0.06,0.0,-0.01,0.01,101823.448
2022-10-03 7:2:42.6010,0.007,-0.133,-1.001,-0.25,0.36,0.08,-0.01,0.0,0.01,101823.448
2022-10-03 7:2:42.6110,0.011,-0.137,-0.993,-0.04,0.27,0.22,0.0,-0.03,0.01,101823.448
2022-10-03 7:2:42.6210,-0.014,-0.125,-0.996,-0.03,0.35,-0.14,0.0,0.0,0.0,101823.448
2022-10-03 7:2:42.6310,-0.003,-0.088,-1.008,0.16,-0.01,0.06,0.0,-0.04,0.0,101823.448
2022-10-03 7:2:42.6410,-0.027,-0.091,-0.985,0.16,-0.01,0.06,0.02,-0.0,-0.0,101823.448
2022-10-03 7:2:42.6510,-0.028,-0.171,-0.973,0.2,-0.34,-0.05,-0.02,-0.05,-0.0,101823.448
2022-10-03 7:2:42.6600,-0.038,-0.05,-1.032,0.45,0.39,-0.22,-0.02,0.02,0.02,101823.448
2022-10-03 7:2:42.6710,0.011,0.057,-1.024,0.31,0.39,0.12,-0.01,-0.03,0.0,101823.448
2022-10-03 7:2:42.6800,0.078,-0.097,-0.991,-0.7,-0.38,-0.46,0.02,-0.05,-0.0,101823.448
2022-10-03 7:2:42.6900,-0.046,-0.068,-1.068,0.01,-0.37,0.62,-0.0,0.07,0.02,101823.448
2022-10-03 7:2:42.7000,-0.074,0.017,-0.979,0.01,-0.37,0.62,0.04,0.03,0.02,101823.448
2022-10-03 7:2:42.7100,0.081,0.113,-0.999,-0.08,-1.98,0.03,0.04,-0.05,0.01,101823.448
2022-10-03 7:2:42.7210,0.146,-0.125,-1.061,-0.08,-1.98,0.03,-0.07,-0.02,0.0,101823.448
2022-10-03 7:2:42.7300,0.096,0.086,-1.043,-1.4,-0.48,1.13,0.05,-0.02,0.0,101823.448
2022-10-03 7:2:42.7400,0.029,0.04,-0.977,-0.3520030766353011,-2.41,0.17,0.08,-0.06,-0.0,101823.448
2022-10-03 7:2:42.7500,-0.053,-0.068,-0.973,-0.36,-2.41,0.17,0.04,-0.01,0.01,101823.448
2022-10-03 7:2:42.7600,-0.047,0.029,-0.966,0.89,-1.12,-0.68,0.06,-0.04,-0.0,101823.448
2022-10-03 7:2:42.7700,0.022,-0.022,-1.059,-0.1,-1.14,1.07,0.0,-0.02,-0.0,101823.448
2022-10-03 7:2:42.7800,0.004,-0.093,-0.892,-0.1,-1.14,1.07,-0.01,-0.03,0.0,101823.448
2022-10-03 7:2:42.7900,-0.02,-0.049,-1.044,0.0,-0.31,-0.86,0.07,-0.02,0.01,101823.448
2022-10-03 7:2:42.8000,-0.033,-0.004,-1.075,0.12,-0.34,-0.48,0.01,0.02,0.0,101823.448
2022-10-03 7:2:42.8100,0.034,-0.084,-0.945,0.47,-0.95,1.6,0.01,-0.09,0.01,101823.448
2022-10-03 7:2:42.8200,-0.032,-0.089,-0.956,-0.09,-0.6,-0.62,0.03,0.02,0.0,101823.448
2022-10-03 7:2:42.8290,-0.035,-0.034,-1.062,0.51,-0.68,0.37,0.04,-0.02,0.01,101823.448
2022-10-03 7:2:42.8400,-0.015,-0.081,-0.948,0.51,-0.68,0.37,0.04,0.0,0.01,101823.448
2022-10-03 7:2:42.8490,-0.009,-0.094,-0.923,0.21,-0.14,-0.43,-0.02,-0.01,0.01,101823.448
2022-10-03 7:2:42.8590,0.018,-0.056,-0.926,0.21,-0.14,-0.43,0.01,-0.02,0.0,101823.448
2022-10-03 7:2:42.8690,0.027,-0.012,-1.047,-0.02,-0.32,-1.09,0.02,0.02,0.0,101823.448
2022-10-03 7:2:42.8790,0.058,-0.041,-0.93,-0.16,-0.88,0.39,-0.02,-0.06,-0.0,101823.448
2022-10-03 7:2:42.8890,0.054,-0.051,-0.936,-0.37,-0.83,-0.15,-0.01,-0.03,0.0,101823.448
2022-10-03 7:2:42.9000,-0.0,-0.01,-1.015,-0.59,-0.53,-0.84,0.01,-0.0,-0.0,101823.448
2022-10-03 7:2:42.9090,0.001,-0.03,-0.936,-0.11,-0.86,0.05,-0.02,-0.05,-0.0,101823.448
2022-10-03 7:2:42.9190,0.011,-0.037,-0.952,0.12,-0.91,-0.23,-0.02,-0.01,-0.0,101823.448
2022-10-03 7:2:42.9290,-0.005,-0.017,-0.984,-0.07,-0.68,-0.6,-0.01,-0.02,-0.0,101823.448
2022-10-03 7:2:42.9390,-0.017,-0.021,-0.967,0.07,-0.86,-0.2,-0.01,-0.01,0.0,101823.448
2022-10-03 7:2:42.9480,-0.017,-0.03,-0.948,0.24,-0.81,-0.42,-0.02,-0.01,0.0,101823.448
2022-10-03 7:2:42.9590,-0.014,-0.026,-0.955,0.18,-0.81,-0.43,-0.02,-0.0,-0.0,101823.448
2022-10-03 7:2:42.9690,-0.034,-0.026,-0.956,0.3262508425489068,-0.81,-0.36,-0.02,0.0,-0.0,101823.448
2022-10-03 7:2:42.9780,-0.026,-0.024,-0.96,0.39,-0.84,-0.36,-0.03,0.01,-0.0,101823.448
2022-10-03 7:2:42.9890,-0.012,-0.031,-0.962,0.21,-0.79,-0.34,-0.03,-0.0,-0.01,101823.448
2022-10-03 7:2:42.9990,-0.012,-0.029,-0.978,0.21,-0.79,-0.34,-0.03,0.01,-0.01,101823.448
2022-10-03 7:2:43.0080,-0.012,-0.025,-0.973,0.17,-0.77,-0.21,-0.04,0.01,-0.01,101823.448
2022-10-03 7:2:43.0180,-0.016,-0.027,-0.963,0.18,-0.82,-0.18,-0.04,0.01,-0.01,101823.448
2022-10-03 7:2:43.0280,-0.006,-0.027,-0.967,0.2,-0.81,-0.28,-0.05,0.01,-0.02,101823.448
2022-10-03 7:2:43.0380,-0.005,-0.025,-0.964,0.18,-0.78,-0.29,-0.05,0.02,-0.02,101823.448
2022-10-03 7:2:43.0480,-0.01,-0.026,-0.959,0.1,-0.81,-0.27,-0.05,0.02,-0.02,101823.448
2022-10-03 7:2:43.0580,-0.012,-0.024,-0.959,0.16,-0.8,-0.35,-0.06,0.02,-0.02,101823.448
2022-10-03 7:2:43.0680,-0.014,-0.022,-0.966,0.18,-0.8,-0.36,-0.06,0.03,-0.02,101823.448
2022-10-03 7:2:43.0780,-0.016,-0.02,-0.971,0.21,-0.81,-0.32,-0.06,0.03,-0.02,101823.448
2022-10-03 7:2:43.0880,-0.008,-0.019,-0.971,0.23,-0.83,-0.24,-0.06,0.02,-0.03,101823.448
2022-10-03 7:2:43.0980,0.0,-0.017,-0.987,0.1,-0.85,-0.13,-0.06,0.03,-0.02,101823.448
2022-10-03 7:2:43.1080,0.004,-0.015,-0.99,0.06,-0.86,-0.06,-0.06,0.03,-0.02,101823.448
2022-10-03 7:2:43.1170,-0.001,-0.016,-0.992,0.06,-0.86,-0.06,-0.06,0.04,-0.02,101823.448
2022-10-03 7:2:43.1260,-0.006,-0.013,-0.997,0.16,-0.85,-0.03,-0.06,0.05,-0.02,101823.448
2022-10-03 7:2:43.1360,-0.0,-0.008,-1.001,0.16,-0.85,-0.03,-0.06,0.04,-0.02,101823.151
2022-10-03 7:2:43.1460,-0.001,-0.016,-0.999,0.13,-0.93,0.07,-0.06,0.05,-0.02,101823.151
2022-10-03 7:2:43.1560,0.004,-0.009,-0.997,0.09,-0.88,0.05,-0.06,0.04,-0.02,101823.151
2022-10-03 7:2:43.1670,0.016,-0.01,-0.997,0.13,-0.85,-0.02,-0.06,0.04,-0.02,101823.151
2022-10-03 7:2:43.1780,0.024,-0.016,-0.987,-0.08,-0.83,-0.05,-0.06,0.03,-0.02,101823.151
2022-10-03 7:2:43.1870,0.024,-0.013,-0.991,-0.13,-0.83,-0.07,-0.06,0.03,-0.02,101823.151
2022-10-03 7:2:43.1970,0.015,-0.012,-0.996,-0.13,-0.83,-0.07,-0.06,0.03,-0.02,101823.151
2022-10-03 7:2:43.2070,0.019,-0.015,-0.998,-0.05,-0.86,-0.01,-0.05,0.02,-0.02,101823.151
2022-10-03 7:2:43.2170,0.026,-0.016,-1.004,-0.12,-0.8,0.08,-0.05,0.01,-0.02,101823.151
2022-10-03 7:2:43.2270,0.025,-0.016,-1.007,-0.12,-0.8,0.08,-0.05,0.02,-0.01,101823.151
2022-10-03 7:2:43.2370,0.036,-0.021,-1.007,-0.1,-0.8,0.11,-0.05,0.0,-0.01,101823.151
2022-10-03 7:2:43.2470,0.035,-0.033,-1.002,-0.19,-0.77,0.1,-0.05,-0.01,-0.01,101823.151
2022-10-03 7:2:43.2570,0.039,-0.039,-1.012,-0.25,-0.54,0.09,-0.05,-0.01,-0.01,101823.151
2022-10-03 7:2:43.2680,0.026,-0.028,-1.019,-0.25,-0.54,0.09,-0.05,-0.02,-0.0,101823.151
2022-10-03 7:2:43.2760,0.017,-0.024,-1.021,-0.16,-0.63,0.22,-0.04,-0.01,-0.0,101823.151
2022-10-03 7:2:43.2860,0.014,-0.026,-1.015,-0.07,-0.68,0.24,-0.04,-0.03,-0.0,101823.151
2022-10-03 7:2:43.2960,0.02,-0.023,-1.016,0.01,-0.67,0.2,-0.03,-0.02,0.0,101823.151
2022-10-03 7:2:43.3060,0.03,-0.025,-1.006,-0.11,-0.68,0.13,-0.03,-0.05,0.0,101823.151
2022-10-03 7:2:43.3160,0.04,-0.03,-1.007,-0.11,-0.68,0.13,-0.03,-0.04,0.0,101823.151
2022-10-03 7:2:43.3260,0.034,-0.028,-1.015,-0.25,-0.63,0.08,-0.03,-0.06,0.01,101823.151
2022-10-03 7:2:43.3350,0.025,-0.024,-1.018,-0.24,-0.61,0.16,-0.02,-0.06,0.01,101823.151
2022-10-03 7:2:43.3460,0.015,-0.018,-1.022,-0.07,-0.71,0.23,-0.02,-0.07,0.01,101823.151
2022-10-03 7:2:43.3560,0.009,-0.018,-1.023,-0.07,-0.71,0.23,-0.02,-0.07,0.01,101823.151
2022-10-03 7:2:43.3660,0.003,-0.022,-1.023,0.01,-0.74,0.26,-0.02,-0.08,0.01,101823.151
2022-10-03 7:2:43.3750,-0.002,-0.021,-1.026,0.05,-0.69,0.25,-0.01,-0.08,0.01,101823.151
2022-10-03 7:2:43.3860,0.003,-0.019,-1.026,0.1,-0.69,0.31,-0.01,-0.09,0.01,101823.151
2022-10-03 7:2:43.3950,0.001,-0.015,-1.028,0.08,-0.71,0.28,-0.01,-0.1,0.01,101823.151
2022-10-03 7:2:43.4060,-0.009,-0.008,-1.03,0.13,-0.79,0.33,-0.0,-0.09,0.02,101823.151
2022-10-03 7:2:43.4160,-0.014,-0.006,-1.027,0.13,-0.79,0.33,0.0,-0.1,0.01,101823.151
2022-10-03 7:2:43.4260,-0.009,-0.009,-1.028,0.2,-0.84,0.32,0.01,-0.1,0.02,101823.151
2022-10-03 7:2:43.4350,-0.004,-0.016,-1.029,0.1,-0.76,0.31,0.01,-0.1,0.02,101823.151
2022-10-03 7:2:43.4460,-0.005,-0.02,-1.029,0.1,-0.76,0.31,0.01,-0.1,0.01,101823.151
2022-10-03 7:2:43.4560,-0.004,-0.017,-1.032,0.08,-0.71,0.32,0.01,-0.1,0.02,101823.151
2022-10-03 7:2:43.4650,-0.0,-0.01,-1.035,0.08,-0.72,0.33,0.02,-0.11,0.01,101823.151
2022-10-03 7:2:43.4750,0.003,-0.007,-1.036,0.04,-0.78,0.38,0.03,-0.11,0.02,101823.151
2022-10-03 7:2:43.4850,0.004,-0.008,-1.034,-0.03,-0.84,0.38,0.03,-0.11,0.02,101823.151
2022-10-03 7:2:43.4950,0.007,-0.014,-1.03,-0.06,-0.8,0.35,0.04,-0.1,0.02,101823.151
2022-10-03 7:2:43.5050,0.008,-0.022,-1.021,-0.06,-0.8,0.35,0.04,-0.1,0.02,101823.151
2022-10-03 7:2:43.5150,0.003,-0.03,-1.016,-0.09,-0.73,0.29,0.04,-0.09,0.02,101823.151
2022-10-03 7:2:43.5250,-0.002,-0.032,-1.022,-0.08,-0.65,0.21,0.04,-0.09,0.02,101823.151
2022-10-03 7:2:43.5350,-0.001,-0.028,-1.027,-0.02,-0.64,0.29,0.05,-0.09,0.02,101823.151
2022-10-03 7:2:43.5450,0.006,-0.025,-1.025,-0.02,-0.64,0.29,0.05,-0.08,0.02,101823.151
2022-10-03 7:2:43.5550,0.005,-0.03,-1.022,-0.08,-0.68,0.31,0.06,-0.07,0.03,101823.151
2022-10-03 7:2:43.5650,0.008,-0.04,-1.016,-0.11,-0.68,0.27,0.06,-0.07,0.02,101823.151
2022-10-03 7:2:43.5750,0.011,-0.051,-1.011,-0.13,-0.59,0.22,0.06,-0.06,0.02,101823.151
2022-10-03 7:2:43.5850,0.013,-0.062,-1.006,-0.17,-0.39,0.12,0.06,-0.05,0.03,101823.151
2022-10-03 7:2:43.5940,0.013,-0.069,-1.008,-0.21,-0.3,0.1,0.06,-0.04,0.03,101823.151
2022-10-03 7:2:43.6050,0.008,-0.064,-1.01,-0.21,-0.3,0.1,0.06,-0.04,0.03,101823.151
2022-10-03 7:2:43.6140,0.006,-0.058,-1.012,-0.18,-0.32,0.13,0.07,-0.03,0.03,101823.151
2022-10-03 7:2:43.6250,0.004,-0.054,-1.012,-0.15,-0.39,0.16,0.07,-0.02,0.03,101823.151
2022-10-03 7:2:43.6340,0.003,-0.054,-1.009,-0.12,-0.45,0.17,0.08,-0.01,0.03,101823.151
2022-10-03 7:2:43.6440,-0.0,-0.055,-1.006,-0.1,-0.46,0.12,0.08,-0.01,0.03,101823.151
2022-10-03 7:2:43.6540,-0.006,-0.055,-1.0,-0.06,-0.47,0.08,0.08,-0.0,0.02,101823.151
2022-10-03 7:2:43.6640,-0.017,-0.054,-0.999,-0.06,-0.47,0.08,0.08,0.01,0.02,101823.151
2022-10-03 7:2:43.6740,-0.033,-0.052,-0.996,0.21,-0.51,0.02,0.08,0.02,0.02,101823.151
2022-10-03 7:2:43.6840,-0.034,-0.048,-1.003,0.21,-0.51,0.02,0.08,0.03,0.02,101823.151
2022-10-03 7:2:43.6940,-0.028,-0.045,-1.004,0.23,-0.6,0.09,0.09,0.04,0.02,101823.151
2022-10-03 7:2:43.7040,-0.018,-0.049,-1.0,0.23,-0.6,0.09,0.09,0.05,0.02,101823.151
2022-10-03 7:2:43.7140,-0.018,-0.053,-0.995,0.15,-0.59,0.07,0.09,0.06,0.02,101823.151
2022-10-03 7:2:43.7240,-0.022,-0.058,-0.981,0.17,-0.52,-0.07,0.08,0.07,0.02,101823.151
2022-10-03 7:2:43.7340,-0.013,-0.06,-0.976,0.17,-0.52,-0.07,0.08,0.08,0.02,101823.151
2022-10-03 7:2:43.7440,-0.003,-0.067,-0.977,0.13,-0.5,-0.17,0.08,0.08,0.02,101823.151
2022-10-03 7:2:43.7540,-0.001,-0.068,-0.986,-0.02,-0.42,-0.12,0.08,0.09,0.02,101823.151
2022-10-03 7:2:43.7640,0.004,-0.066,-0.989,-0.02,-0.42,-0.12,0.08,0.09,0.02,101823.151
2022-10-03 7:2:43.7730,0.011,-0.073,-0.987,-0.1,-0.43,-0.06,0.08,0.09,0.02,101823.151
2022-10-03 7:2:43.7830,0.025,-0.081,-0.987,-0.1,-0.43,-0.06,0.08,0.09,0.02,101823.151
2022-10-03 7:2:43.7930,0.038,-0.076,-0.991,-0.19,-0.34,-0.07,0.08,0.1,0.02,101823.151
2022-10-03 7:2:43.8030,0.039,-0.071,-0.989,-0.33,-0.34,-0.06,0.08,0.1,0.02,101823.151
2022-10-03 7:2:43.8130,0.031,-0.079,-0.983,-0.33,-0.4,-0.1,0.07,0.11,0.02,101823.151
2022-10-03 7:2:43.8230,0.016,-0.083,-0.978,-0.18,-0.33,-0.13,0.07,0.11,0.02,101823.151
2022-10-03 7:2:43.8330,0.005,-0.081,-0.982,-0.18,-0.33,-0.13,0.07,0.12,0.02,101823.151
2022-10-03 7:2:43.8430,0.003,-0.074,-0.976,0.04,-0.42,-0.16,0.06,0.1,0.02,101823.151
2022-10-03 7:2:43.8530,-0.009,-0.077,-0.985,0.07,-0.41,-0.05,0.07,0.13,0.02,101823.151
2022-10-03 7:2:43.8630,-0.021,-0.088,-0.971,0.27,-0.36,-0.24,0.07,0.11,0.02,101823.151
2022-10-03 7:2:43.8730,-0.031,-0.101,-0.975,0.27,-0.36,-0.24,0.06,0.14,0.03,101823.151
2022-10-03 7:2:43.8830,-0.026,-0.112,-0.966,0.35,-0.23,-0.14,0.06,0.13,0.03,101823.151
2022-10-03 7:2:43.8920,-0.03,-0.105,-0.957,0.41,-0.13,-0.3,0.07,0.14,0.03,101823.151
2022-10-03 7:2:43.9030,-0.023,-0.124,-0.951,0.39,-0.04,-0.3,0.06,0.12,0.03,101823.151
2022-10-03 7:2:43.9130,-0.014,-0.124,-0.943,0.39,-0.04,-0.3,0.08,0.11,0.03,101823.151
2022-10-03 7:2:43.9230,-0.013,-0.117,-0.954,0.27,-0.06,-0.46,0.07,0.12,0.02,101823.151
2022-10-03 7:2:43.9320,-0.021,-0.118,-0.985,0.27,-0.06,-0.46,0.05,0.12,0.03,101823.151
2022-10-03 7:2:43.9420,-0.028,-0.114,-1.008,0.34,-0.06,-0.16,0.05,0.15,0.03,101823.151
2022-10-03 7:2:43.9520,-0.005,-0.131,-0.98,0.37,-0.01,-0.04,0.04,0.14,0.03,101823.151
2022-10-03 7:2:43.9620,0.031,-0.135,-1.014,0.01,0.12,0.11,0.04,0.15,0.04,101823.151
2022-10-03 7:2:43.9720,0.057,-0.136,-1.031,0.01,0.12,0.11,0.05,0.17,0.04,101823.151
2022-10-03 7:2:43.9820,0.075,-0.101,-1.014,-0.4,-0.07,0.54,0.08,0.15,0.03,101823.151
2022-10-03 7:2:43.9930,0.173,-0.151,-1.055,-1.096297824829817,-0.23,-0.27,0.08,0.05,0.03,101823.151
2022-10-03 7:2:44.0020,0.029,-0.057,-0.821,-1.1,-0.23,-0.27,-0.13,0.18,0.02,101823.151
2022-10-03 7:2:44.0120,0.11,-0.253,-1.045,-0.77,-0.2,0.72,0.06,0.07,0.03,101823.151
2022-10-03 7:2:44.0220,0.014,-0.059,-0.739,-0.57,0.34,1.41,-0.06,0.08,0.02,101823.151
2022-10-03 7:2:44.0320,0.05,-0.21,-1.1,0.22,-0.09,-2.76,0.04,0.12,0.02,101823.151
2022-10-03 7:2:44.0420,0.018,-0.098,-0.817,-0.19,0.52,1.51,-0.04,-0.07,0.02,101823.151
2022-10-03 7:2:44.0510,0.1,-0.053,-1.09,-0.43,-0.86,-1.4,0.04,0.11,0.02,101823.151
2022-10-03 7:2:44.0620,-0.014,-0.126,-0.95,-0.04,-0.37,0.88,0.03,0.01,0.02,101823.151
2022-10-03 7:2:44.0710,0.019,-0.121,-0.939,-0.04,-0.37,0.88,-0.05,-0.01,0.03,101823.151
2022-10-03 7:2:44.0810,0.025,-0.09,-1.078,0.35,0.13,-0.52,0.0,0.1,0.04,101823.151
2022-10-03 7:2:44.0910,0.015,-0.179,-0.909,-0.1,-0.51,0.14,-0.02,0.05,0.05,101823.151
2022-10-03 7:2:44.1010,0.122,-0.123,-1.095,-0.72,0.23,0.03,0.03,0.01,0.05,101823.151
2022-10-03 7:2:44.1110,0.073,-0.13,-0.811,-0.72,0.23,0.03,0.05,-0.07,0.08,101823.151
2022-10-03 7:2:44.1210,0.179,-0.087,-1.181,-1.59,-0.33,1.35,-0.03,0.06,0.02,101823.151
2022-10-03 7:2:44.1310,0.087,-0.171,-0.644,-0.56,-0.27,-3.26,0.06,0.05,0.02,101823.151
2022-10-03 7:2:44.1410,0.125,-0.201,-1.066,-0.96,0.93,0.18,0.01,-0.19,0.05,101823.112
2022-10-03 7:2:44.1510,-0.011,-0.213,-0.884,-0.96,0.93,0.18,-0.11,0.06,0.03,101823.112
2022-10-03 7:2:44.1610,0.019,-0.193,-0.768,-0.09,0.67,0.18,0.02,-0.24,0.03,101823.112
2022-10-03 7:2:44.1710,-0.061,-0.084,-1.238,0.42,0.68,-3.4,0.01,-0.02,0.03,101823.112
2022-10-03 7:2:44.1810,-0.102,-0.143,-0.689,0.06,-0.19,2.66,0.08,-0.02,0.01,101823.112
2022-10-03 7:2:44.1910,0.031,-0.042,-1.242,-0.03,-0.81,1.53,-0.05,-0.13,0.02,101823.112
2022-10-03 7:2:44.2010,-0.094,-0.172,-0.895,-0.03,-0.81,1.53,-0.05,0.13,0.01,101823.112
2022-10-03 7:2:44.2110,-0.005,-0.084,-1.009,0.92,-0.03,0.1,0.01,-0.13,0.02,101823.112
2022-10-03 7:2:44.2200,-0.029,-0.062,-1.121,0.28,-1.02,1.83,-0.01,0.17,0.02,101823.112
2022-10-03 7:2:44.2310,0.02,-0.149,-0.863,0.49,-0.13,-1.35,0.02,-0.03,0.03,101823.112
2022-10-03 7:2:44.2400,0.027,-0.085,-1.027,-0.21,-0.07,0.42,-0.02,-0.01,0.03,101823.112
2022-10-03 7:2:44.2500,0.005,-0.083,-0.862,-0.21,-0.07,0.42,-0.04,0.11,0.02,101823.112
2022-10-03 7:2:44.2600,0.113,-0.192,-0.862,-0.5,0.32,-1.6,-0.04,-0.17,0.02,101823.112
2022-10-03 7:2:44.2700,0.055,-0.153,-0.933,-0.5,0.32,-1.6,-0.07,0.02,0.02,101823.112
2022-10-03 7:2:44.2800,-0.019,-0.112,-0.887,-0.67,0.55,-0.36,-0.06,-0.07,0.02,101823.112
2022-10-03 7:2:44.2900,-0.053,-0.167,-0.968,0.32,-0.22,-1.26,-0.07,0.03,0.02,101823.112
2022-10-03 7:2:44.3010,0.005,-0.128,-0.945,0.7,0.22,-0.21,-0.06,0.01,0.03,101823.112
2022-10-03 7:2:44.3100,0.022,-0.135,-1.057,0.49,0.1,-0.66,-0.03,-0.02,0.03,101823.112
2022-10-03 7:2:44.3200,-0.008,-0.153,-0.944,0.02,-0.06,0.25,-0.08,0.05,0.02,101823.112
2022-10-03 7:2:44.3300,0.002,-0.157,-1.034,0.37,0.44,-0.24,-0.07,0.0,0.02,101823.112
2022-10-03 7:2:44.3400,0.043,-0.125,-1.056,0.37,0.01,0.95,-0.07,0.02,0.01,101823.112
2022-10-03 7:2:44.3500,0.034,-0.138,-0.966,-0.03,0.01,0.95,-0.06,-0.0,0.01,101823.112
2022-10-03 7:2:44.3600,0.014,-0.114,-0.987,-0.13,0.05,-0.16,-0.06,0.02,0.02,101823.112
2022-10-03 7:2:44.3700,0.005,-0.119,-0.918,0.08,-0.05,-0.07,-0.07,0.03,0.02,101823.112
2022-10-03 7:2:44.3790,0.061,-0.115,-0.963,-0.1,-0.12,-0.55,-0.08,-0.02,0.03,101823.112
2022-10-03 7:2:44.3880,0.066,-0.121,-0.932,-0.41,-0.01,-0.37,-0.07,-0.0,0.03,101823.112
2022-10-03 7:2:44.3980,0.051,-0.113,-0.933,-0.23,-0.1,-0.64,-0.08,-0.01,0.03,101823.112
2022-10-03 7:2:44.4090,0.055,-0.11,-0.969,-0.23,-0.1,-0.64,-0.08,-0.03,0.03,101823.112
2022-10-03 7:2:44.4190,0.033,-0.12,-0.969,-0.26,-0.14,-0.41,-0.09,-0.01,0.03,101823.112
2022-10-03 7:2:44.4290,0.007,-0.111,-0.955,0.12,-0.05,-0.52,-0.09,-0.04,0.02,101823.112
2022-10-03 7:2:44.4390,-0.017,-0.108,-1.047,0.38,-0.14,0.36,-0.09,0.01,0.02,101823.112
2022-10-03 7:2:44.4490,0.008,-0.121,-1.002,0.38,-0.14,0.36,-0.05,-0.01,0.02,101823.112
2022-10-03 7:2:44.4590,0.028,-0.113,-1.033,0.42,0.13,0.25,-0.06,-0.02,0.02,101823.112
2022-10-03 7:2:44.4690,0.007,-0.095,-0.954,-0.05,-0.31,0.18,-0.06,-0.02,0.02,101823.112
2022-10-03 7:2:44.4790,0.029,-0.118,-0.994,0.15,-0.26,-0.08,-0.05,-0.02,0.02,101823.112
2022-10-03 7:2:44.4890,0.015,-0.095,-0.932,0.04,-0.01,-0.34,-0.1,0.02,0.02,101823.112
2022-10-03 7:2:44.4990,0.037,-0.139,-1.019,0.11,0.24,-0.03,-0.08,0.02,0.02,101823.112
2022-10-03 7:2:44.5090,0.079,-0.093,-0.926,0.11,0.24,-0.03,-0.08,0.02,0.02,101823.112
2022-10-03 7:2:44.5190,0.051,-0.09,-1.04,-0.45,-0.17,-0.59,-0.09,0.01,0.01,101823.112
2022-10-03 7:2:44.5290,0.008,-0.093,-0.991,-0.32,-0.09,0.51,-0.07,-0.08,0.02,101823.112
2022-10-03 7:2:44.5390,-0.027,-0.126,-0.941,0.58,0.23,0.05,-0.08,0.01,0.02,101823.112
2022-10-03 7:2:44.5480,-0.009,-0.089,-1.054,0.58,0.23,0.05,-0.07,-0.07,0.02,101823.112
2022-10-03 7:2:44.5590,-0.032,-0.068,-0.987,0.31,-0.17,-0.23,-0.07,-0.03,0.02,101823.112
2022-10-03 7:2:44.5690,-0.059,-0.113,-1.009,0.49,-0.41,0.5,-0.08,-0.03,0.01,101823.112
2022-10-03 7:2:44.5790,-0.052,-0.075,-1.002,0.79,-0.03,0.01,-0.06,-0.04,0.02,101823.112
2022-10-03 7:2:44.5890,-0.06,-0.125,-0.989,0.77,-0.28,-0.02,-0.07,0.04,0.01,101823.112
2022-10-03 7:2:44.5980,0.008,-0.084,-0.988,0.88,0.09,0.33,-0.06,-0.07,0.0,101823.112
2022-10-03 7:2:44.6080,0.02,-0.101,-1.024,0.44,-0.17,-0.48,-0.06,0.01,0.01,101823.112
2022-10-03 7:2:44.6180,0.051,-0.087,-0.979,0.01,-0.05,-0.43,-0.05,-0.04,-0.01,101823.112
2022-10-03 7:2:44.6270,0.072,-0.132,-1.006,0.0,-0.39,-0.43,-0.07,-0.1,0.0,101823.112
2022-10-03 7:2:44.6450,-0.007,-0.048,-1.023,0.16,-0.44,-0.04,-0.03,0.05,-0.0,101823.112
2022-10-03 7:2:44.6450,0.037,-0.118,-0.975,0.16,-0.44,-0.04,-0.06,-0.12,0.0,101823.112
2022-10-03 7:2:44.6570,0.042,-0.127,-1.053,0.05,0.2911674389988184,0.25813001275062564,-0.04,0.01,0.01,101823.112
2022-10-03 7:2:44.6670,0.033,-0.097,-0.923,-0.24,0.29,0.25,-0.06,-0.06,0.01,101823.112
2022-10-03 7:2:44.6770,0.065,-0.103,-1.082,-0.06,-0.12,-0.25,-0.04,-0.05,0.01,101823.112
2022-10-03 7:2:44.6870,0.064,-0.089,-0.937,-0.32,-0.02,0.22,-0.04,-0.05,0.0,101823.112
2022-10-03 7:2:44.6970,0.063,-0.094,-1.023,-0.44,-0.12,-0.11,-0.05,-0.09,0.01,101823.112
2022-10-03 7:2:44.7070,0.028,-0.085,-0.984,-0.44,-0.12,-0.11,-0.04,-0.04,0.0,101823.112
2022-10-03 7:2:44.7170,0.006,-0.111,-0.964,0.09,0.0,-0.18,-0.06,-0.08,0.01,101823.112
2022-10-03 7:2:44.7260,0.0,-0.085,-1.046,0.09,0.0,-0.18,-0.03,-0.04,0.01,101823.112
2022-10-03 7:2:44.7360,0.004,-0.084,-0.988,0.26,-0.33,0.34,-0.04,-0.03,0.01,101823.112
2022-10-03 7:2:44.7460,0.05,-0.131,-1.001,0.26,-0.33,0.34,-0.03,-0.09,0.01,101823.112
2022-10-03 7:2:44.7560,0.028,-0.099,-0.998,-0.12,0.01,0.26,-0.05,-0.0,0.01,101823.112
2022-10-03 7:2:44.7660,0.041,-0.104,-0.996,-0.2,0.01,-0.22,-0.03,-0.09,0.01,101823.112
2022-10-03 7:2:44.7770,0.034,-0.118,-1.0,-0.2,0.01,-0.22,-0.04,-0.02,0.01,101823.112
2022-10-03 7:2:44.7860,0.036,-0.12,-0.953,-0.14,0.04,0.27,-0.04,-0.07,0.01,101823.112
2022-10-03 7:2:44.7970,0.044,-0.123,-1.003,-0.21,0.2,-0.04,-0.04,-0.04,0.01,101823.112
2022-10-03 7:2:44.8070,0.043,-0.12,-0.954,-0.21,0.2,-0.04,-0.04,-0.04,0.01,101823.112
2022-10-03 7:2:44.8170,0.042,-0.136,-0.972,-0.25,0.12,-0.19,-0.03,-0.07,0.01,101823.112
2022-10-03 7:2:44.8270,0.025,-0.131,-0.962,-0.25,0.27185817874968055,-0.22,-0.04,-0.05,0.01,101823.112
2022-10-03 7:2:44.8370,0.029,-0.138,-0.972,-0.06,0.35,-0.33,-0.04,-0.06,0.02,101823.112
2022-10-03 7:2:44.8470,0.032,-0.147,-0.997,-0.06,0.35,-0.33,-0.04,-0.06,0.02,101823.112
2022-10-03 7:2:44.8570,0.021,-0.148,-0.981,-0.19,0.38,-0.05,-0.04,-0.06,0.02,101823.112
2022-10-03 7:2:44.8650,0.014,-0.153,-0.999,-0.04,0.49,-0.07,-0.04,-0.05,0.02,101823.112
2022-10-03 7:2:44.8760,0.003,-0.149,-0.971,-0.04,0.49,-0.07,-0.05,-0.04,0.02,101823.112
2022-10-03 7:2:44.8850,0.008,-0.15,-0.99,0.11,0.49,-0.08,-0.05,-0.04,0.02,101823.112
2022-10-03 7:2:44.8970,0.014,-0.15,-0.971,0.09,0.49,-0.19,-0.05,-0.03,0.02,101823.112
2022-10-03 7:2:44.9060,0.018,-0.151,-0.973,-0.01,0.52,-0.24,-0.05,-0.03,0.02,101823.112
2022-10-03 7:2:44.9160,0.027,-0.155,-0.956,-0.01,0.52,-0.24,-0.04,-0.04,0.02,101823.112
2022-10-03 7:2:44.9250,0.027,-0.157,-0.96,-0.12,0.56,-0.26,-0.06,-0.04,0.02,101823.112
2022-10-03 7:2:44.9360,0.026,-0.159,-0.956,-0.12,0.56,-0.26,-0.05,-0.05,0.02,101823.112
2022-10-03 7:2:44.9460,0.017,-0.161,-0.954,-0.12,0.59,-0.49,-0.07,-0.04,0.02,101823.112
2022-10-03 7:2:44.9560,0.019,-0.162,-0.953,-0.03,0.64,-0.52,-0.06,-0.04,0.02,101823.112
2022-10-03 7:2:44.9650,0.022,-0.161,-0.956,-0.07,0.61,-0.39,-0.04,-0.03,0.03,101823.112
2022-10-03 7:2:44.9760,0.022,-0.169,-0.948,-0.07,0.61,-0.39,-0.07,-0.04,0.02,101823.112
2022-10-03 7:2:44.9860,0.022,-0.183,-0.957,-0.09,0.65,-0.43,-0.08,-0.04,0.03,101823.112
2022-10-03 7:2:44.9960,0.026,-0.191,-0.957,-0.1,0.8,-0.41,-0.07,-0.03,0.03,101823.112
2022-10-03 7:2:45.0060,0.029,-0.2,-0.973,-0.11,0.93,-0.41,-0.07,-0.04,0.03,101823.112
2022-10-03 7:2:45.0150,0.018,-0.194,-0.962,-0.11,1.07,-0.32,-0.07,-0.04,0.03,101823.112
2022-10-03 7:2:45.0250,-0.005,-0.183,-0.983,-0.11,1.07,-0.32,-0.08,-0.02,0.03,101823.112
2022-10-03 7:2:45.0350,-0.01,-0.184,-0.944,0.26,0.92,-0.51,-0.06,-0.02,0.03,101823.112
2022-10-03 7:2:45.0450,0.005,-0.178,-0.974,0.26,0.92,-0.51,-0.09,-0.01,0.03,101823.112
2022-10-03 7:2:45.0550,0.026,-0.168,-0.974,0.12,0.89,-0.16,-0.08,-0.03,0.03,101823.112
2022-10-03 7:2:45.0650,0.001,-0.161,-0.997,-0.07,0.82,-0.31,-0.08,-0.01,0.03,101823.112
2022-10-03 7:2:45.0750,-0.003,-0.171,-0.945,0.22,0.84,-0.39,-0.07,-0.01,0.02,101823.112
2022-10-03 7:2:45.0850,0.007,-0.131,-1.035,-0.08,0.34,-0.1,-0.07,-0.06,0.02,101823.112
2022-10-03 7:2:45.0950,-0.025,-0.171,-0.902,0.46,0.85,-0.12,-0.11,0.02,0.01,101823.112
2022-10-03 7:2:45.1050,0.026,-0.116,-1.03,0.46,0.85,-0.12,-0.1,-0.1,0.02,101823.112
2022-10-03 7:2:45.1150,0.007,-0.103,-1.001,-0.11,0.43,-0.55,-0.06,0.05,0.01,101823.112
2022-10-03 7:2:45.1250,0.058,-0.096,-0.993,0.08,0.23,0.52,-0.07,-0.1,0.02,101823.112
2022-10-03 7:2:45.1340,0.024,-0.1,-1.031,-0.37,0.07,-0.26,-0.06,0.03,0.03,101823.112
2022-10-03 7:2:45.1440,0.016,-0.115,-0.96,0.01,0.27,-0.09,-0.07,-0.02,0.03,101822.617
2022-10-03 7:2:45.1550,0.018,-0.164,-1.037,0.01,0.27,-0.09,-0.07,-0.04,0.03,101822.617
2022-10-03 7:2:45.1650,-0.033,-0.088,-1.021,-0.22,0.49,-0.03,-0.01,0.0,0.02,101822.617
2022-10-03 7:2:45.1740,-0.043,-0.171,-0.994,0.37,0.57,0.35,-0.11,-0.0,0.03,101822.617
2022-10-03 7:2:45.1830,0.062,-0.076,-1.009,-0.02,0.01,-0.5,-0.06,-0.01,0.02,101822.617
2022-10-03 7:2:45.1940,0.046,-0.155,-1.05,-0.02,0.01,-0.5,-0.0,0.03,0.02,101822.617
2022-10-03 7:2:45.2040,0.086,-0.104,-0.951,-0.43,0.44,-0.11,-0.05,0.0,0.01,101822.617
2022-10-03 7:2:45.2140,0.018,-0.114,-1.087,-0.83,0.62,0.41,-0.05,-0.04,0.02,101822.617
2022-10-03 7:2:45.2250,-0.012,-0.083,-1.007,0.65,0.01,0.76,-0.06,0.04,0.01,101822.617
2022-10-03 7:2:45.2340,0.016,-0.145,-1.078,-0.39,0.3,0.1,-0.03,-0.12,0.02,101822.617
2022-10-03 7:2:45.2440,-0.068,-0.096,-1.02,-0.39,0.3865742640942335,0.7339442628622055,0.02,0.19,0.01,101822.617
2022-10-03 7:2:45.2540,0.054,-0.097,-1.015,0.91,0.38,0.73,-0.04,-0.21,0.02,101822.617
2022-10-03 7:2:45.2640,-0.063,-0.13,-1.054,-0.22,-0.22,-0.3,-0.02,0.23,0.01,101822.617
2022-10-03 7:2:45.2740,0.01,-0.035,-1.006,0.27,0.65,0.92,-0.02,-0.16,0.01,101822.617
2022-10-03 7:2:45.2840,-0.037,-0.093,-1.136,-0.08,-0.05,1.67,0.01,0.12,0.01,101822.617
2022-10-03 7:2:45.2940,-0.075,-0.038,-0.958,-0.08,-0.05,1.67,0.05,0.06,0.01,101822.617
2022-10-03 7:2:45.3030,0.039,-0.081,-1.106,1.14,-0.31,-0.34,0.01,-0.08,0.0,101822.617
2022-10-03 7:2:45.3140,-0.039,-0.066,-1.018,0.19,0.06,0.53,0.03,0.17,-0.01,101822.617
2022-10-03 7:2:45.3240,0.005,-0.056,-0.997,0.19,0.06,0.53,0.03,0.17,-0.01,101822.617
2022-10-03 7:2:45.3330,0.004,-0.081,-1.076,0.36,-0.42,-0.17,0.02,0.11,-0.01,101822.617
2022-10-03 7:2:45.3440,-0.004,-0.047,-0.953,0.3,-0.21,-0.23,0.03,0.02,-0.01,101822.617
2022-10-03 7:2:45.3540,0.034,-0.046,-1.097,0.3,-0.21,-0.23,0.03,-0.0,-0.01,101822.617
2022-10-03 7:2:45.3630,-0.019,-0.05,-0.973,-0.19,-0.46,0.61,0.04,0.1,-0.02,101822.617
2022-10-03 7:2:45.3730,0.004,-0.027,-1.031,0.23,-0.54,-0.09,0.05,-0.02,-0.02,101822.617
2022-10-03 7:2:45.3830,-0.006,-0.05,-1.041,0.23,-0.54,-0.09,0.05,0.08,-0.02,101822.617
2022-10-03 7:2:45.3930,-0.004,-0.055,-0.966,0.11,-0.45,0.68,0.04,0.02,-0.02,101822.617
2022-10-03 7:2:45.4030,0.02,-0.063,-1.042,0.27,-0.31,-0.18,0.06,0.03,-0.02,101822.617
2022-10-03 7:2:45.4130,0.005,-0.064,-1.012,0.0,-0.27,0.12,0.05,0.05,-0.02,101822.617
2022-10-03 7:2:45.4230,0.008,-0.051,-1.018,0.13,-0.31,0.03,0.05,0.0,-0.02,101822.617
2022-10-03 7:2:45.4330,0.002,-0.038,-1.049,0.07,-0.46,0.55,0.06,0.05,-0.02,101822.617
2022-10-03 7:2:45.4430,0.004,-0.034,-0.984,0.21,-0.55,0.08,0.06,0.03,-0.03,101822.617
2022-10-03 7:2:45.4520,0.031,-0.032,-1.0,0.21,-0.55,0.08,0.07,0.01,-0.02,101822.617
2022-10-03 7:2:45.4620,0.014,-0.029,-0.975,-0.09,-0.55,-0.07,0.06,0.04,-0.03,101822.617
2022-10-03 7:2:45.4730,0.026,-0.034,-0.958,-0.03,-0.62,-0.02,0.05,0.0,-0.03,101822.617
2022-10-03 7:2:45.4820,0.029,-0.029,-0.983,0.0,-0.58,-0.43,0.05,0.02,-0.03,101822.617
2022-10-03 7:2:45.4920,0.029,-0.017,-0.965,-0.13,-0.6,-0.16,0.04,0.0,-0.03,101822.617
2022-10-03 7:2:45.5030,0.029,-0.003,-0.972,-0.09,-0.69,-0.26,0.04,-0.0,-0.03,101822.617
2022-10-03 7:2:45.5120,0.021,0.005,-0.971,-0.13,-0.85,-0.27,0.04,0.0,-0.03,101822.617
2022-10-03 7:2:45.5220,0.027,0.009,-0.968,-0.04,-0.94,-0.21,0.04,-0.03,-0.03,101822.617
2022-10-03 7:2:45.5320,0.015,0.008,-0.973,-0.06,-1.0,-0.31,0.04,-0.02,-0.03,101822.617
2022-10-03 7:2:45.5420,-0.002,0.009,-0.959,0.16,-1.01,-0.31,0.04,-0.03,-0.03,101822.617
2022-10-03 7:2:45.5520,-0.007,0.009,-0.963,0.22,-1.03,-0.37,0.03,-0.03,-0.03,101822.617
2022-10-03 7:2:45.5620,-0.018,0.013,-0.963,0.22,-1.03,-0.37,0.02,-0.02,-0.03,101822.617
2022-10-03 7:2:45.5720,-0.016,0.02,-0.967,0.32,-1.03,-0.29,0.02,-0.03,-0.03,101822.617
2022-10-03 7:2:45.5820,-0.01,0.02,-0.96,0.35,-1.13,-0.32,0.02,-0.02,-0.03,101822.617
2022-10-03 7:2:45.5920,0.007,0.019,-0.955,0.3,-1.14,-0.3,0.02,-0.03,-0.03,101822.617
2022-10-03 7:2:45.6020,0.018,0.016,-0.947,0.18,-1.14,-0.4,0.01,-0.04,-0.03,101822.617
2022-10-03 7:2:45.6120,0.012,0.015,-0.945,0.01,-1.12,-0.44,0.0,-0.03,-0.03,101822.617
2022-10-03 7:2:45.6220,0.009,0.017,-0.952,0.08,-1.11,-0.46,-0.0,-0.04,-0.03,101822.617
2022-10-03 7:2:45.6310,0.011,0.018,-0.954,0.07,-1.14,-0.41,-0.01,-0.03,-0.03,101822.617
2022-10-03 7:2:45.6410,0.025,0.011,-0.944,0.07,-1.14,-0.41,-0.01,-0.04,-0.03,101822.617
2022-10-03 7:2:45.6510,0.044,0.033,-0.973,-0.27,-1.23,-0.39,-0.01,-0.07,-0.03,101822.617
2022-10-03 7:2:45.6610,0.02,0.012,-0.939,-0.27,-1.23,-0.39,-0.01,-0.07,-0.03,101822.617
2022-10-03 7:2:45.6710,0.004,-0.008,-0.932,0.04,-0.98,-0.74,-0.03,-0.08,-0.03,101822.617
2022-10-03 7:2:45.6810,-0.046,0.011,-0.941,0.04,-0.98,-0.74,-0.017351027578115463,-0.02,-0.03,101822.617
2022-10-03 7:2:45.6910,-0.032,0.003,-0.95,0.4,-0.85,-0.55,-0.06,-0.06,-0.03,101822.617
2022-10-03 7:2:45.7010,-0.02,0.021,-0.961,0.33,-0.91,-0.57,-0.02,-0.03,-0.03,101822.617
2022-10-03 7:2:45.7110,-0.006,0.022,-0.956,0.33,-0.91,-0.57,-0.04,-0.05,-0.03,101822.617
2022-10-03 7:2:45.7210,-0.001,0.008,-0.949,0.23,-1.19,-0.1,-0.05,-0.06,-0.04,101822.617
2022-10-03 7:2:45.7310,0.0,0.013,-0.974,0.18,-1.02,-0.59,-0.04,-0.04,-0.04,101822.617
2022-10-03 7:2:45.7400,0.008,0.009,-0.954,0.07,-1.0,-0.23,-0.05,-0.07,-0.04,101822.617
2022-10-03 7:2:45.7510,-0.006,0.001,-0.976,0.13,-1.07,-0.36,-0.06,-0.05,-0.04,101822.617
2022-10-03 7:2:45.7610,-0.023,0.011,-0.961,0.02,-0.92,-0.25,-0.06,-0.05,-0.04,101822.617
2022-10-03 7:2:45.7710,-0.033,0.026,-0.985,0.35,-1.01,-0.33,-0.06,-0.05,-0.05,101822.617
2022-10-03 7:2:45.7810,-0.029,0.049,-0.992,0.37,-1.08,-0.21,-0.06,-0.04,-0.05,101822.617
2022-10-03 7:2:45.7900,-0.015,0.049,-0.975,0.43,-1.3,-0.01,-0.06,-0.07,-0.06,101822.617
2022-10-03 7:2:45.8010,-0.022,0.047,-0.988,0.3,-1.42,-0.2,-0.06,-0.04,-0.06,101822.617
2022-10-03 7:2:45.8100,-0.027,0.042,-0.973,0.38,-1.3,-0.27,-0.06,-0.07,-0.06,101822.617
2022-10-03 7:2:45.8210,-0.04,0.047,-1.002,0.37,-1.34,0.08,-0.07,-0.04,-0.06,101822.617
2022-10-03 7:2:45.8300,-0.061,0.043,-0.975,0.37,-1.34,0.08,-0.07,-0.06,-0.06,101822.617
2022-10-03 7:2:45.8400,-0.067,0.049,-1.003,0.71,-1.34,-0.01,-0.07,-0.05,-0.06,101822.617
2022-10-03 7:2:45.8500,-0.06,0.053,-1.005,0.71,-1.34,-0.01,-0.07,-0.06,-0.07,101822.617
2022-10-03 7:2:45.8600,-0.039,0.067,-1.022,0.72,-1.33,0.08,-0.06,-0.08,-0.07,101822.617
2022-10-03 7:2:45.8700,-0.048,0.055,-1.011,0.5,-1.47,0.17,-0.06,-0.08,-0.07,101822.617
2022-10-03 7:2:45.8800,-0.05,0.029,-0.996,0.56,-1.2,0.0,-0.07,-0.1,-0.07,101822.617
2022-10-03 7:2:45.8900,-0.04,0.031,-1.009,0.56,-1.2,0.0,-0.07,-0.09,-0.08,101822.617
2022-10-03 7:2:45.9000,-0.02,0.042,-1.022,0.46,-1.1,0.08,-0.06,-0.11,-0.08,101822.617
2022-10-03 7:2:45.9100,-0.01,0.039,-1.02,0.3,-1.2,0.19,-0.06,-0.11,-0.08,101822.617
2022-10-03 7:2:45.9200,0.005,0.023,-1.023,0.13,-1.23,0.24,-0.06,-0.12,-0.07,101822.617
2022-10-03 7:2:45.9290,0.028,0.017,-1.033,0.01,-1.09,0.24,-0.05,-0.12,-0.07,101822.617
2022-10-03 7:2:45.9400,0.03,0.006,-1.026,-0.22,-0.98,0.31,-0.05,-0.14,-0.07,101822.617
2022-10-03 7:2:45.9490,0.018,-0.009,-1.019,-0.28,-0.75,0.23,-0.05,-0.13,-0.07,101822.617
2022-10-03 7:2:45.9590,0.017,-0.017,-1.022,-0.21,-0.63,0.21,-0.05,-0.13,-0.06,101822.617
2022-10-03 7:2:45.9690,0.031,-0.008,-1.035,-0.21,-0.63,0.21,-0.04,-0.12,-0.06,101822.617
2022-10-03 7:2:45.9790,0.031,0.002,-1.034,-0.34,-0.66,0.33,-0.03,-0.12,-0.06,101822.617
2022-10-03 7:2:45.9890,0.022,0.001,-1.024,-0.4,-0.77,0.38,-0.03,-0.09,-0.05,101822.617
2022-10-03 7:2:45.9990,0.032,-0.007,-1.012,-0.33,-0.71,0.13,-0.02,-0.1,-0.05,101822.617
2022-10-03 7:2:46.0090,0.051,0.002,-1.021,-0.33,-0.71,0.22558499515056613,-0.02,-0.08,-0.05,101822.617
2022-10-03 7:2:46.0190,0.042,0.001,-1.022,-0.58,-0.79,0.22,-0.02,-0.08,-0.05,101822.617
2022-10-03 7:2:46.0290,0.023,-0.007,-1.029,-0.58,-0.79,0.22,-0.02,-0.08,-0.05,101822.617
2022-10-03 7:2:46.0390,0.02,-0.0,-1.04,-0.42,-0.7,0.31,-0.01,-0.03,-0.04,101822.617
2022-10-03 7:2:46.0490,0.034,0.022,-1.051,-0.31,-0.75,0.4,0.01,-0.01,-0.04,101822.617
2022-10-03 7:2:46.0590,0.034,0.026,-1.036,-0.41,-0.91,0.44,0.01,-0.0,-0.04,101822.617
2022-10-03 7:2:46.0690,0.028,0.007,-1.022,-0.46,-1.03,0.44,0.01,0.02,-0.04,101822.617
2022-10-03 7:2:46.0790,0.025,-0.006,-1.021,-0.43,-0.9,0.34,0.02,0.04,-0.04,101822.617
2022-10-03 7:2:46.0880,0.021,-0.013,-1.019,-0.34,-0.69,0.17,0.02,0.06,-0.04,101822.617
2022-10-03 7:2:46.0990,0.016,-0.022,-1.01,-0.26,-0.58,0.15,0.03,0.07,-0.03,101822.617
2022-10-03 7:2:46.1090,0.015,-0.03,-1.012,-0.26,-0.58,0.15,0.03,0.09,-0.03,101822.617
2022-10-03 7:2:46.1180,0.019,-0.034,-1.021,-0.25,-0.52,0.18,0.03,0.09,-0.03,101822.617
2022-10-03 7:2:46.1280,0.014,-0.047,-1.012,-0.26,-0.47,0.18,0.05,0.12,-0.02,101822.617
2022-10-03 7:2:46.1390,0.02,-0.073,-0.998,-0.22,-0.39,0.19,0.06,0.13,-0.02,101822.617
2022-10-03 7:2:46.1480,0.033,-0.092,-0.995,-0.2,-0.18,0.06,0.05,0.15,-0.01,101822.617
2022-10-03 7:2:46.1580,0.033,-0.1,-0.988,-0.32,0.04,-0.01,0.05,0.16,-0.01,101822.617
2022-10-03 7:2:46.1680,0.03,-0.088,-1.005,-0.35,0.15,-0.09,0.05,0.17,0.0,101822.617
2022-10-03 7:2:46.1780,0.033,-0.079,-1.02,-0.29,-0.02,0.21,0.05,0.17,0.0,101822.617
2022-10-03 7:2:46.1880,0.046,-0.055,-1.037,-0.36,-0.21,0.29,0.06,0.18,0.01,101822.617
2022-10-03 7:2:46.1980,0.051,-0.051,-1.028,-0.36,-0.21,0.29,0.07,0.16,0.01,101822.617
2022-10-03 7:2:46.2080,0.045,-0.045,-1.021,-0.39,-0.38,0.28,0.07,0.17,0.01,101822.617
2022-10-03 7:2:46.2180,0.043,-0.04,-1.011,-0.36,-0.44,0.13,0.08,0.15,0.01,101822.617
2022-10-03 7:2:46.2280,0.024,-0.044,-0.993,-0.19,-0.44,0.08,0.07,0.16,0.01,101822.617
2022-10-03 7:2:46.2380,0.021,-0.041,-0.991,-0.19,-0.44,0.08,0.06,0.14,0.01,101822.617
2022-10-03 7:2:46.2480,0.027,-0.036,-1.007,-0.11,-0.49,0.07,0.07,0.14,0.01,101822.617
2022-10-03 7:2:46.2580,0.02,-0.032,-1.01,-0.11,-0.49,0.07,0.08,0.13,0.01,101822.617
2022-10-03 7:2:46.2680,0.002,-0.052,-1.014,-0.08,-0.57,0.12,0.08,0.13,0.01,101822.617
2022-10-03 7:2:46.2770,-0.011,-0.089,-1.004,0.28,-0.14,0.12,0.08,0.16,0.02,101822.617
2022-10-03 7:2:46.2870,0.024,-0.092,-1.02,0.13,0.01,0.11,0.09,0.14,0.02,101822.617
2022-10-03 7:2:46.2970,0.052,-0.109,-1.031,0.13,0.01,0.11,0.09,0.13,0.02,101822.617
2022-10-03 7:2:46.3070,0.052,-0.118,-1.011,-0.28,0.21,0.17,0.09,0.12,0.02,101822.617
2022-10-03 7:2:46.3170,0.05,-0.118,-1.023,-0.28,0.21,0.17,0.1,0.11,0.02,101822.617
2022-10-03 7:2:46.3270,0.039,-0.111,-1.011,-0.15,0.14,0.26,0.1,0.11,0.01,101822.617
2022-10-03 7:2:46.3370,0.05,-0.108,-1.008,-0.15,0.14,0.26,0.12,0.07,0.02,101822.617
2022-10-03 7:2:46.3470,0.037,-0.131,-0.999,-0.14,0.24,0.17,0.12,0.07,0.02,101822.617
2022-10-03 7:2:46.3570,0.048,-0.135,-0.994,-0.13,0.35,-0.06,0.11,0.06,0.01,101822.617
2022-10-03 7:2:46.3670,0.068,-0.152,-1.006,-0.13,0.35,-0.06,0.12,0.04,0.01,101822.617
2022-10-03 7:2:46.3770,0.043,-0.158,-0.999,-0.33,0.44,0.06,0.11,0.04,0.01,101822.617
2022-10-03 7:2:46.3870,0.025,-0.154,-0.999,-0.29,0.56,0.11,0.11,0.04,0.01,101822.617
2022-10-03 7:2:46.3970,0.024,-0.153,-1.003,0.04,0.47,0.04,0.1,0.02,0.02,101822.617
2022-10-03 7:2:46.4070,0.003,-0.176,-1.053,0.04,0.47,0.04,0.1,0.02,0.02,101822.617
2022-10-03 7:2:46.4160,0.022,-0.061,-0.947,0.18,0.63,0.34,0.12,0.01,0.01,101822.617
2022-10-03 7:2:46.4260,0.016,-0.17,-1.031,-0.03,-0.01,-1.22,0.2,0.1,0.03,101822.617
2022-10-03 7:2:46.4370,0.022,-0.087,-0.989,0.25,0.21,1.84,0.15,0.03,0.01,101822.617
2022-10-03 7:2:46.4460,0.105,-0.114,-1.023,0.25,0.21,1.84,0.13,-0.11,0.02,101822.617
2022-10-03 7:2:46.4560,-0.031,-0.178,-0.991,-0.53,-0.73,-2.93,0.04,0.45,0.01,101822.617
2022-10-03 7:2:46.4660,0.105,-0.105,-0.941,0.22,1.03,3.03,0.11,-0.18,0.02,101822.617
2022-10-03 7:2:46.4760,0.036,-0.126,-1.23,-0.61,0.13,3.78,0.12,0.24,0.01,101822.617
2022-10-03 7:2:46.4860,0.075,-0.114,-0.911,-0.61,0.13,3.78,0.11,-0.28,0.02,101822.617
2022-10-03 7:2:46.4960,0.037,-0.115,-1.135,-0.48,-0.03,0.54,0.21,0.13,0.01,101822.617
2022-10-03 7:2:46.5060,0.013,-0.186,-0.882,-0.48,-0.03,0.54,0.16,-0.07,0.03,101822.617
2022-10-03 7:2:46.5160,0.063,-0.173,-0.906,-0.12,0.46,-1.64,0.06,-0.09,0.03,101822.617
2022-10-03 7:2:46.5260,0.044,-0.221,-0.944,-0.12,0.46,-1.64,0.03,0.03,0.01,101822.617
2022-10-03 7:2:46.5360,0.016,-0.162,-0.913,0.28,0.68,-0.76,0.11,-0.13,0.03,101822.617
2022-10-03 7:2:46.5460,0.019,-0.189,-0.912,0.28,0.68,-0.76,0.17,-0.03,0.02,101822.617
2022-10-03 7:2:46.5560,0.018,-0.129,-0.984,0.02,0.37,-1.12,0.14,0.03,0.03,101822.617
2022-10-03 7:2:46.5650,0.063,-0.146,-0.952,-0.22,0.08,-0.7,0.12,-0.21,0.04,101822.617
2022-10-03 7:2:46.5750,-0.02,-0.214,-0.986,-0.22,0.08,-0.7,0.06,0.15,0.03,101822.617
2022-10-03 7:2:46.5850,0.023,-0.206,-0.969,0.02,0.64,0.6,0.12,-0.16,0.04,101822.617
2022-10-03 7:2:46.5950,0.029,-0.139,-1.019,-0.23,0.45,1.02,0.12,0.05,0.04,101822.617
2022-10-03 7:2:46.6050,0.056,-0.137,-1.013,-0.23,0.45,1.02,0.12,-0.06,0.04,101822.617
2022-10-03 7:2:46.6150,0.083,-0.112,-1.023,-0.65,-0.17,0.44,0.12,-0.1,0.04,101822.617
2022-10-03 7:2:46.6260,0.016,-0.178,-0.897,-0.65,-0.17,0.44,0.07,0.03,0.03,101822.617
2022-10-03 7:2:46.6350,0.043,-0.155,-0.955,-0.03,0.19,-0.34,0.08,-0.16,0.04,101822.617
2022-10-03 7:2:46.6450,-0.002,-0.129,-0.969,-0.08,0.41,-0.99,0.08,0.03,0.03,101822.617
2022-10-03 7:2:46.6550,0.026,-0.145,-0.876,0.17,-0.05,-1.05,0.05,-0.08,0.03,101822.617
2022-10-03 7:2:46.6650,0.014,-0.131,-0.944,0.17,-0.05,-1.05,0.07,-0.08,0.03,101822.617
2022-10-03 7:2:46.6750,-0.051,-0.172,-0.837,0.64,0.03,-1.01,0.04,0.04,0.02,101822.617
2022-10-03 7:2:46.6850,-0.016,-0.169,-0.899,0.64,0.03,-1.01,0.03,-0.13,0.03,101822.617
2022-10-03 7:2:46.6950,-0.03,-0.189,-0.946,0.5,0.43,-0.06,-0.02,0.06,0.02,101822.617
2022-10-03 7:2:46.7050,-0.008,-0.18,-0.915,0.31,0.54,-1.23,-0.0,-0.11,0.02,101822.617
2022-10-03 7:2:46.7150,-0.054,-0.116,-1.06,0.58,-0.03,0.68,0.0,0.05,0.01,101822.617
2022-10-03 7:2:46.7250,-0.048,-0.127,-0.931,0.58,-0.03,0.68,0.03,-0.02,0.01,101822.617
2022-10-03 7:2:46.7340,-0.016,-0.128,-1.031,0.48,-0.09,0.33,0.01,-0.0,0.02,101822.617
2022-10-03 7:2:46.7440,-0.004,-0.163,-0.933,0.48,-0.09,0.33,-0.01,0.03,0.01,101822.617
2022-10-03 7:2:46.7540,0.044,-0.158,-0.978,0.33,0.08,-0.33,-0.0,-0.04,0.01,101822.617
2022-10-03 7:2:46.7640,0.047,-0.131,-0.985,-0.29,-0.04,0.11,-0.01,0.03,0.01,101822.617
2022-10-03 7:2:46.7740,0.062,-0.132,-0.943,-0.29,-0.04,0.11,-0.01,-0.03,0.01,101822.617
2022-10-03 7:2:46.7840,0.073,-0.121,-0.969,-0.25,-0.05,-0.53,-0.03,-0.03,0.01,101822.617
2022-10-03 7:2:46.7940,0.048,-0.113,-0.912,-0.33,-0.22,-0.74,-0.03,-0.02,0.0,101822.617
2022-10-03 7:2:46.8040,0.036,-0.123,-0.975,-0.18,-0.18,-0.28,-0.04,-0.05,0.01,101822.617
2022-10-03 7:2:46.8140,0.012,-0.128,-0.931,0.01,-0.06,-0.46,-0.05,-0.02,-0.0,101822.617
2022-10-03 7:2:46.8240,-0.001,-0.091,-0.968,0.01,-0.06,-0.46,-0.05,-0.04,-0.0,101822.617
2022-10-03 7:2:46.8340,-0.022,-0.068,-0.971,0.33,-0.67,-0.17,-0.05,-0.02,-0.0,101822.617
2022-10-03 7:2:46.8430,-0.041,-0.098,-0.957,0.58,-0.42,-0.28,-0.06,-0.0,-0.0,101822.617
2022-10-03 7:2:46.8540,-0.024,-0.096,-0.991,0.52,-0.39,-0.2,-0.06,-0.02,-0.01,101822.617
2022-10-03 7:2:46.8640,-0.015,-0.105,-0.988,0.52,-0.39,-0.2,-0.06,-0.01,-0.01,101822.617
2022-10-03 7:2:46.8730,0.0,-0.112,-1.017,0.39,-0.3,0.07,-0.06,-0.02,-0.01,101822.617
2022-10-03 7:2:46.8840,0.022,-0.115,-1.012,0.29,-0.26,0.07,-0.06,-0.04,-0.01,101822.617
2022-10-03 7:2:46.8930,0.018,-0.1,-1.024,-0.0035565689206123355,-0.25,0.31,-0.06,-0.03,-0.01,101822.617
2022-10-03 7:2:46.9040,0.003,-0.107,-0.995,0.1,-0.33,0.12,-0.05,-0.04,-0.0,101822.617
2022-10-03 7:2:46.9130,-0.003,-0.123,-0.979,0.25,-0.1,-0.07,-0.05,-0.02,-0.01,101822.617
2022-10-03 7:2:46.9230,0.021,-0.123,-0.993,0.25,-0.1,-0.07,-0.06,-0.05,-0.01,101822.617
2022-10-03 7:2:46.9330,0.023,-0.129,-0.965,-0.07,-0.01,-0.13,-0.06,-0.05,-0.01,101822.617
2022-10-03 7:2:46.9430,0.01,-0.113,-0.977,-0.07,-0.01,-0.13,-0.06,-0.05,-0.02,101822.617
2022-10-03 7:2:46.9530,0.007,-0.112,-0.967,0.04,-0.09,-0.22,-0.06,-0.06,-0.02,101822.617
2022-10-03 7:2:46.9630,0.006,-0.099,-0.968,0.09,-0.21,-0.23,-0.06,-0.04,-0.01,101822.617
2022-10-03 7:2:46.9740,0.011,-0.099,-0.973,0.13,-0.21,-0.2203540760278702,-0.06,-0.07,-0.02,101822.617
2022-10-03 7:2:46.9830,-0.013,-0.11,-0.98,0.04,-0.33,-0.23,-0.06,-0.04,-0.02,101822.617
2022-10-03 7:2:46.9930,-0.024,-0.105,-0.983,0.19,-0.21,-0.13,-0.06,-0.04,-0.02,101822.617
2022-10-03 7:2:47.0020,0.004,-0.112,-1.017,0.1892337690666318,-0.13,0.23,-0.07,-0.06,-0.02,101822.617
2022-10-03 7:2:47.0130,-0.003,-0.103,-0.994,0.18,-0.13,0.23,-0.05,-0.04,-0.02,101822.617
2022-10-03 7:2:47.0220,0.015,-0.116,-0.994,0.1,-0.03,0.1,-0.05,-0.07,-0.02,101822.617
2022-10-03 7:2:47.0320,0.025,-0.1,-0.99,0.1,-0.03,0.1,-0.05,-0.05,-0.02,101822.617
2022-10-03 7:2:47.0430,0.065,-0.142,-0.974,-0.08,-0.13,0.01,-0.06,-0.12,-0.03,101822.617
2022-10-03 7:2:47.0520,-0.041,-0.119,-0.986,-0.35,0.07,0.01,-0.04,-0.02,-0.02,101822.617
2022-10-03 7:2:47.0620,-0.043,-0.184,-0.881,0.95,0.52,-0.25,-0.08,-0.1,-0.03,101822.617
2022-10-03 7:2:47.0720,0.08,-0.092,-1.046,0.95,0.52,-0.25,-0.07,-0.06,-0.02,101822.617
2022-10-03 7:2:47.0820,-0.024,-0.111,-0.915,-0.52,-0.17,-0.63,-0.06,0.05,-0.03,101822.617
2022-10-03 7:2:47.0920,0.101,-0.138,-0.988,-0.29,-0.03,-0.7,-0.09,-0.16,-0.03,101822.617
2022-10-03 7:2:47.1020,0.049,-0.136,-0.94,-0.86,0.27,-0.02,-0.09,0.01,-0.03,101822.617
2022-10-03 7:2:47.1120,-0.001,-0.119,-0.947,-0.86,0.27,-0.02,-0.09,-0.04,-0.03,101822.617
2022-10-03 7:2:47.1220,0.057,-0.143,-0.964,0.16,-0.06,-0.69,-0.07,-0.08,-0.03,101822.617
2022-10-03 7:2:47.1320,0.032,-0.148,-0.966,-0.3,0.2,-0.29,-0.09,0.0,-0.03,101822.617
2022-10-03 7:2:47.1420,0.022,-0.137,-0.942,-0.09,0.28,-0.71,-0.06,-0.07,-0.02,101822.586
2022-10-03 7:2:47.1520,0.017,-0.136,-1.016,-0.09,0.28,-0.71,-0.09,-0.01,-0.03,101822.586
2022-10-03 7:2:47.1610,0.012,-0.14,-0.951,-0.04,0.38,-0.46,-0.05,-0.01,-0.02,101822.586
2022-10-03 7:2:47.1720,0.048,-0.165,-0.998,-0.04,0.38,-0.46,-0.1,-0.06,-0.02,101822.586
2022-10-03 7:2:47.1820,-0.008,-0.168,-0.95,-0.15,0.69,-0.68,-0.06,0.04,-0.02,101822.586
2022-10-03 7:2:47.1920,0.0,-0.129,-0.956,-0.15,0.69,-0.68,-0.1,-0.03,-0.01,101822.586
2022-10-03 7:2:47.2010,-0.009,-0.126,-1.022,0.25,0.14,-0.05,-0.07,0.03,-0.02,101822.586
2022-10-03 7:2:47.2110,-0.026,-0.182,-0.883,0.04,0.11,-0.21,-0.1,0.03,-0.02,101822.586
2022-10-03 7:2:47.2210,-0.014,-0.155,-0.953,0.29,0.61,-1.07,-0.08,0.01,-0.02,101822.586
2022-10-03 7:2:47.2310,-0.007,-0.146,-0.945,0.29,0.61,-1.07,-0.1,0.07,-0.02,101822.586
2022-10-03 7:2:47.2410,0.04,-0.129,-0.955,-0.08,0.27,-0.71,-0.09,-0.01,-0.02,101822.586
2022-10-03 7:2:47.2510,0.04,-0.119,-0.971,-0.37,0.11,-0.05,-0.09,0.05,-0.02,101822.586
2022-10-03 7:2:47.2610,0.023,-0.125,-0.971,-0.15,0.14,-0.38,-0.08,0.03,-0.02,101822.586
2022-10-03 7:2:47.2710,0.019,-0.116,-0.996,-0.15,0.14,-0.38,-0.08,0.03,-0.02,101822.586
2022-10-03 7:2:47.2810,0.001,-0.13,-0.992,-0.09,0.09,-0.02,-0.09,0.08,-0.01,101822.586
2022-10-03 7:2:47.2900,0.021,-0.133,-0.985,0.02,0.25,-0.17,-0.08,0.02,-0.01,101822.586
2022-10-03 7:2:47.3010,0.014,-0.135,-1.009,-0.07,0.27,0.14,-0.09,0.08,-0.01,101822.586
2022-10-03 7:2:47.3110,0.017,-0.126,-0.992,-0.07,0.27,0.14,-0.08,0.04,-0.01,101822.586
2022-10-03 7:2:47.3210,0.013,-0.124,-0.995,0.02,0.24,-0.05,-0.08,0.06,-0.01,101822.586
2022-10-03 7:2:47.3310,0.002,-0.119,-0.956,-0.04,0.18,0.1,-0.08,0.08,-0.01,101822.586
2022-10-03 7:2:47.3410,0.005,-0.113,-0.96,0.15,0.11,-0.31,-0.08,0.06,-0.01,101822.586
2022-10-03 7:2:47.3510,0.004,-0.111,-0.965,0.15,0.11,-0.31,-0.07,0.08,-0.01,101822.586
2022-10-03 7:2:47.3600,0.011,-0.114,-0.968,0.1,0.09,-0.38,-0.08,0.08,-0.01,101822.586
2022-10-03 7:2:47.3710,0.033,-0.122,-0.968,-0.08,0.19,-0.32,-0.08,0.07,-0.01,101822.586
2022-10-03 7:2:47.3800,0.038,-0.12,-0.974,-0.08,0.19,-0.32,-0.08,0.07,-0.02,101822.586
2022-10-03 7:2:47.3910,0.045,-0.124,-0.988,-0.16,0.19,-0.22,-0.08,0.05,-0.02,101822.586
2022-10-03 7:2:47.4000,0.048,-0.124,-0.992,-0.27,0.24,-0.05,-0.07,0.06,-0.02,101822.586
2022-10-03 7:2:47.4100,0.046,-0.132,-0.988,-0.25,0.29,-0.04,-0.07,0.05,-0.02,101822.586
2022-10-03 7:2:47.4200,0.041,-0.136,-0.989,-0.22,0.35,-0.07,-0.07,0.05,-0.01,101822.586
2022-10-03 7:2:47.4300,0.028,-0.149,-0.974,-0.22,0.35,-0.07,-0.07,0.06,-0.01,101822.586
2022-10-03 7:2:47.4400,0.026,-0.15,-0.981,-0.11,0.45,-0.16,-0.07,0.06,-0.0,101822.586
2022-10-03 7:2:47.4500,0.03,-0.16,-0.98,-0.02,0.52,-0.19,-0.07,0.06,0.0,101822.586
2022-10-03 7:2:47.4600,0.03,-0.167,-0.983,-0.05,0.57,-0.13,-0.07,0.06,0.0,101822.586
2022-10-03 7:2:47.4700,0.034,-0.17,-0.984,-0.07,0.72,-0.12,-0.07,0.05,-0.0,101822.586
2022-10-03 7:2:47.4800,0.04,-0.175,-0.976,-0.12,0.76,-0.14,-0.07,0.05,-0.0,101822.586
2022-10-03 7:2:47.4900,0.047,-0.181,-0.971,-0.12,0.76,-0.14,-0.07,0.03,-0.0,101822.586
2022-10-03 7:2:47.5000,0.039,-0.19,-0.964,-0.16,0.88,-0.27,-0.07,0.04,-0.0,101822.586
2022-10-03 7:2:47.5100,0.038,-0.194,-0.95,-0.16,0.88,-0.27,-0.07,0.02,-0.0,101822.586
2022-10-03 7:2:47.5190,0.033,-0.184,-0.972,-0.09,1.01,-0.43,-0.07,0.02,-0.0,101822.586
2022-10-03 7:2:47.5290,0.034,-0.193,-0.974,-0.08,0.96,-0.29,-0.08,0.01,-0.0,101822.586
2022-10-03 7:2:47.5390,0.035,-0.206,-0.98,-0.04,0.93,-0.19,-0.08,0.01,-0.0,101822.586
2022-10-03 7:2:47.5490,0.031,-0.17,-0.977,-0.08,1.13,-0.22,-0.07,0.01,0.0,101822.586
2022-10-03 7:2:47.5590,0.05,-0.158,-1.011,-0.03,0.93,-0.15,-0.07,0.0,0.0,101822.586
2022-10-03 7:2:47.5690,0.068,-0.146,-0.983,-0.11,0.65,-0.01,-0.07,-0.01,0.01,101822.586
2022-10-03 7:2:47.5790,0.054,-0.171,-1.005,-0.37,0.64,-0.01,-0.09,-0.01,0.01,101822.586
2022-10-03 7:2:47.5890,0.014,-0.173,-0.993,-0.37,0.64,-0.01,-0.07,0.0,0.0,101822.586
2022-10-03 7:2:47.5990,0.019,-0.175,-1.034,0.02,0.86,-0.08,-0.07,-0.01,0.02,101822.586
2022-10-03 7:2:47.6090,0.056,-0.059,-1.029,0.09,-0.35,0.28,-0.04,0.07,0.01,101822.586
2022-10-03 7:2:47.6190,0.104,-0.201,-0.956,0.09,-0.35,0.28,-0.01,-0.1,0.03,101822.586
2022-10-03 7:2:47.6290,0.068,-0.038,-1.05,-0.74,0.92,-0.71,-0.06,0.14,0.01,101822.586
2022-10-03 7:2:47.6390,-0.034,-0.158,-0.919,-0.1,0.3,-0.78,-0.08,-0.16,0.02,101822.586
2022-10-03 7:2:47.6490,-0.026,-0.088,-1.053,1.0,0.47,0.71,-0.09,0.13,0.0,101822.586
2022-10-03 7:2:47.6590,-0.004,-0.15,-0.961,1.0,0.47,0.71,-0.06,-0.08,0.02,101822.586
2022-10-03 7:2:47.6680,0.115,-0.129,-1.062,-0.03,0.79,0.61,-0.01,0.02,0.01,101822.586
2022-10-03 7:2:47.6790,0.17,-0.074,-1.039,-0.03,0.79,0.61,-0.01,0.02,0.01,101822.586
2022-10-03 7:2:47.6890,0.036,-0.171,-0.983,-1.65,-0.38,0.27,-0.04,0.04,0.01,101822.586
2022-10-03 7:2:47.6980,0.028,-0.166,-0.97,-0.43,0.69,0.23,-0.05,-0.13,0.02,101822.586
2022-10-03 7:2:47.7080,-0.037,-0.102,-1.087,0.33,0.45,0.6,-0.0,0.03,0.02,101822.586
2022-10-03 7:2:47.7190,-0.026,-0.163,-0.972,0.33,0.45,0.6,-0.05,-0.1,0.01,101822.586
2022-10-03 7:2:47.7280,-0.001,-0.188,-1.07,0.14,0.92,0.02,-0.04,-0.01,0.02,101822.586
2022-10-03 7:2:47.7380,-0.024,-0.157,-1.007,0.61,1.04,0.52,-0.01,-0.04,0.02,101822.586
2022-10-03 7:2:47.7480,0.022,-0.167,-1.041,0.04,0.53,0.43,-0.05,-0.08,0.02,101822.586
2022-10-03 7:2:47.7580,-0.016,-0.158,-0.99,0.35,1.05,-0.03,-0.01,0.02,0.01,101822.586
2022-10-03 7:2:47.7680,0.04,-0.08,-1.073,0.35,1.05,-0.03,0.0,-0.14,-0.01,101822.586
2022-10-03 7:2:47.7780,-0.015,-0.115,-1.033,0.1,0.12,0.4,-0.0,-0.03,-0.01,101822.586
2022-10-03 7:2:47.7880,-0.057,-0.148,-0.984,-0.01,0.1,0.75,-0.01,-0.09,-0.02,101822.586
2022-10-03 7:2:47.7980,-0.023,-0.075,-1.027,0.86,0.61,-0.21,-0.0,-0.11,-0.03,101822.586
2022-10-03 7:2:47.8070,-0.044,-0.076,-1.052,0.58,-0.14,0.72,-0.02,-0.05,-0.04,101822.586
2022-10-03 7:2:47.8170,-0.031,-0.085,-0.991,0.58,-0.14,0.72,0.0,-0.12,-0.04,101822.586
2022-10-03 7:2:47.8270,-0.063,-0.061,-1.055,0.59,0.09,-0.11,0.01,-0.03,-0.03,101822.586
2022-10-03 7:2:47.8370,-0.079,-0.028,-1.055,0.59,-0.15,0.56,0.05,-0.04,-0.04,101822.586
2022-10-03 7:2:47.8470,0.008,-0.027,-1.05,1.1,-0.42,0.83,0.02,-0.08,-0.04,101822.586
2022-10-03 7:2:47.8570,-0.004,-0.064,-1.047,0.42,-0.69,0.83,0.03,-0.03,-0.04,101822.586
2022-10-03 7:2:47.8670,-0.012,-0.023,-1.021,0.05,-0.18,0.39,0.05,-0.06,-0.05,101822.586
2022-10-03 7:2:47.8770,-0.014,-0.042,-1.06,0.38,-0.51,0.27,0.04,-0.04,-0.06,101822.586
2022-10-03 7:2:47.8870,-0.009,-0.059,-0.981,0.26,-0.53,0.65,0.05,-0.05,-0.07,101822.586
2022-10-03 7:2:47.8970,-0.009,-0.046,-1.038,0.2,-0.36,0.29,0.04,-0.07,-0.07,101822.586
2022-10-03 7:2:47.9070,-0.032,-0.055,-1.015,0.2,-0.36,0.29,0.05,-0.04,-0.09,101822.586
2022-10-03 7:2:47.9170,-0.033,-0.047,-1.009,0.47,-0.38,0.06,0.07,-0.08,-0.09,101822.586
2022-10-03 7:2:47.9270,-0.04,-0.048,-1.03,0.57,-0.42,0.3,0.07,-0.02,-0.1,101822.586
2022-10-03 7:2:47.9370,-0.019,-0.048,-1.021,0.57,-0.42,0.3,0.07,-0.07,-0.11,101822.586
2022-10-03 7:2:47.9470,-0.022,-0.064,-0.997,0.31,-0.28,0.17,0.06,-0.03,-0.11,101822.586
2022-10-03 7:2:47.9570,-0.045,-0.054,-1.028,0.51,-0.27,0.11,0.08,-0.03,-0.12,101822.586
2022-10-03 7:2:47.9670,-0.061,-0.065,-1.01,0.51,-0.27,0.11,0.07,-0.02,-0.12,101822.586
2022-10-03 7:2:47.9760,-0.077,-0.077,-0.978,0.87,-0.14,-0.21,0.07,-0.0,-0.12,101822.586
2022-10-03 7:2:47.9860,-0.063,-0.07,-0.978,0.84,-0.22,-0.1,0.06,-0.01,-0.12,101822.586
2022-10-03 7:2:47.9960,-0.041,-0.07,-0.98,0.62,-0.22,-0.23,0.07,0.0,-0.12,101822.586
2022-10-03 7:2:48.0060,-0.026,-0.069,-0.978,0.62,-0.22,-0.23,0.06,-0.0,-0.13,101822.586
2022-10-03 7:2:48.0160,-0.015,-0.069,-0.964,0.31,-0.23,-0.27,0.06,-0.01,-0.13,101822.586
2022-10-03 7:2:48.0260,-0.018,-0.066,-0.968,0.31,-0.23,-0.27,0.06,0.0,-0.14,101822.586
2022-10-03 7:2:48.0350,-0.009,-0.07,-0.967,0.31,-0.3,-0.33,0.05,-0.01,-0.15,101822.586
2022-10-03 7:2:48.0450,-0.004,-0.064,-0.971,0.18,-0.27,-0.27,0.05,-0.01,-0.15,101822.586
2022-10-03 7:2:48.0560,-0.003,-0.052,-0.976,0.17,-0.41,-0.21,0.05,-0.01,-0.15,101822.586
2022-10-03 7:2:48.0660,0.006,-0.043,-0.977,0.17,-0.41,-0.21,0.05,-0.01,-0.15,101822.586
2022-10-03 7:2:48.0760,0.012,-0.042,-0.97,0.01,-0.54,-0.23,0.05,-0.01,-0.16,101822.586
2022-10-03 7:2:48.0860,0.01,-0.033,-0.958,0.01,-0.54,-0.23,0.04,-0.01,-0.16,101822.586
2022-10-03 7:2:48.0960,0.007,-0.028,-0.944,0.04,-0.69,-0.48,0.03,-0.01,-0.15,101822.586
2022-10-03 7:2:48.1050,0.006,-0.013,-0.96,0.04,-0.69,-0.48,0.03,-0.01,-0.15,101822.586
2022-10-03 7:2:48.1160,0.016,-0.008,-0.957,0.07,-0.78,-0.4,0.03,-0.01,-0.15,101822.586
2022-10-03 7:2:48.1250,0.032,-0.011,-0.948,-0.14,-0.88,-0.41,0.02,-0.03,-0.15,101822.586
2022-10-03 7:2:48.1350,0.049,-0.009,-0.948,-0.3,-0.89,-0.49,0.02,-0.04,-0.15,101822.586
2022-10-03 7:2:48.1460,0.057,-0.008,-0.949,-0.3,-0.89,-0.49,0.01,-0.06,-0.15,101822.479
2022-10-03 7:2:48.1550,0.048,-0.009,-0.948,-0.39,-0.9,-0.46,0.01,-0.07,-0.15,101822.479
2022-10-03 7:2:48.1650,0.04,0.003,-0.966,-0.32,-0.97,-0.39,0.01,-0.08,-0.15,101822.479
2022-10-03 7:2:48.1750,0.03,0.01,-0.97,-0.22,-1.07,-0.22,0.01,-0.09,-0.15,101822.479
2022-10-03 7:2:48.1850,0.026,0.015,-0.971,-0.17,-1.12,-0.27,0.0,-0.1,-0.14,101822.479
2022-10-03 7:2:48.1950,0.025,0.017,-0.971,-0.16,-1.14,-0.22,-0.0,-0.11,-0.14,101822.479
2022-10-03 7:2:48.2050,0.022,0.019,-0.967,-0.16,-1.14,-0.22,-0.0,-0.11,-0.14,101822.479
2022-10-03 7:2:48.2150,0.033,0.01,-0.955,-0.14,-1.17,-0.25,-0.03,-0.14,-0.14,101822.479
2022-10-03 7:2:48.2250,0.015,0.006,-0.954,-0.24,-0.94,-0.42,-0.03,-0.14,-0.14,101822.479
2022-10-03 7:2:48.2350,-0.001,0.034,-0.967,0.02,-1.13,-0.27,-0.03,-0.15,-0.13,101822.479
2022-10-03 7:2:48.2450,0.016,0.039,-0.993,0.02,-1.13,-0.27,-0.04,-0.19,-0.12,101822.479
2022-10-03 7:2:48.2550,0.017,0.024,-0.959,-0.05,-1.46,-0.07,-0.04,-0.19,-0.12,101822.479
2022-10-03 7:2:48.2650,0.038,0.026,-0.967,-0.17,-1.24,-0.32,-0.02,-0.17,-0.12,101822.479
2022-10-03 7:2:48.2740,0.048,0.017,-0.984,-0.53,-1.2,-0.2,-0.03,-0.24,-0.11,101822.479
2022-10-03 7:2:48.2840,0.035,0.01,-0.958,-0.39,-1.09,-0.25,-0.04,-0.23,-0.1,101822.479
2022-10-03 7:2:48.2940,0.043,0.005,-0.964,-0.49,-1.05,-0.39,-0.04,-0.29,-0.1,101822.479
2022-10-03 7:2:48.3040,0.026,-0.017,-0.965,-0.42,-0.88,-0.22,-0.05,-0.25,-0.09,101822.479
2022-10-03 7:2:48.3150,0.035,-0.013,-0.978,-0.42,-0.88,-0.22,-0.05,-0.3,-0.09,101822.479
2022-10-03 7:2:48.3240,0.034,-0.007,-1.001,-0.38,-0.78,-0.34,-0.04,-0.29,-0.08,101822.479
2022-10-03 7:2:48.3340,0.026,-0.03,-0.97,-0.4,-0.74,-0.15,-0.05,-0.32,-0.08,101822.479
2022-10-03 7:2:48.3440,0.032,-0.034,-0.982,-0.523921266719699,-0.61,-0.19,-0.05,-0.31,-0.08,101822.479
2022-10-03 7:2:48.3540,0.012,-0.03,-0.995,-0.53,-0.61,-0.19,-0.04,-0.32,-0.08,101822.479
2022-10-03 7:2:48.3640,0.002,-0.036,-0.979,-0.4,-0.64,-0.03,-0.04,-0.32,-0.08,101822.479
2022-10-03 7:2:48.3740,-0.033,-0.039,-0.969,-0.32,-0.62,-0.1,-0.05,-0.33,-0.07,101822.479
2022-10-03 7:2:48.3840,-0.067,-0.037,-0.968,0.24,-0.55,-0.28,-0.05,-0.32,-0.07,101822.479
2022-10-03 7:2:48.3940,-0.091,-0.023,-0.976,0.24,-0.55,-0.28,-0.05,-0.3,-0.07,101822.479
2022-10-03 7:2:48.4040,-0.099,-0.022,-0.973,0.47,-0.64,-0.22,-0.06,-0.29,-0.07,101822.479
2022-10-03 7:2:48.4140,-0.091,-0.031,-0.975,0.51,-0.67,-0.21,-0.07,-0.26,-0.06,101822.479
2022-10-03 7:2:48.4250,-0.06,-0.026,-0.983,0.51,-0.67,-0.21,-0.07,-0.3,-0.07,101822.479
2022-10-03 7:2:48.4340,-0.056,0.023,-1.015,0.39,-0.49,-0.22,-0.05,-0.24,-0.07,101822.479
2022-10-03 7:2:48.4430,-0.098,-0.011,-0.973,0.44,-0.93,-0.12,-0.06,-0.25,-0.07,101822.479
2022-10-03 7:2:48.4530,-0.114,0.012,-0.988,0.53,-0.89,-0.16,-0.04,-0.18,-0.07,101822.479
2022-10-03 7:2:48.4630,-0.119,-0.006,-0.972,0.75,-1.0,-0.14,-0.06,-0.18,-0.07,101822.479
2022-10-03 7:2:48.4730,-0.062,-0.021,-0.988,0.32,-0.62,-0.19,-0.05,-0.14,-0.07,101822.479
2022-10-03 7:2:48.4830,-0.018,-0.0,-1.009,0.32,-0.62,-0.19,-0.07,-0.12,-0.07,101822.479
2022-10-03 7:2:48.4930,-0.002,-0.037,-0.999,-0.23,-0.88,0.1,-0.07,-0.12,-0.07,101822.479
2022-10-03 7:2:48.5030,0.008,0.001,-1.017,-0.66,-0.73,0.11,-0.05,-0.06,-0.07,101822.479
2022-10-03 7:2:48.5130,-0.008,0.002,-1.019,-0.66,-0.73,0.11,-0.05,-0.06,-0.07,101822.479
2022-10-03 7:2:48.5230,0.015,0.006,-1.022,-0.65,-0.91,0.25,-0.03,0.01,-0.07,101822.479
2022-10-03 7:2:48.5330,0.004,-0.011,-1.002,-0.65,-0.91,0.25,-0.03,0.01,-0.06,101822.479
2022-10-03 7:2:48.5430,0.019,-0.039,-0.994,-0.61,-0.86,0.16,-0.03,0.05,-0.06,101822.479
2022-10-03 7:2:48.5530,0.029,-0.032,-1.002,-0.67,-0.56,0.0,-0.03,0.07,-0.06,101822.479
2022-10-03 7:2:48.5630,0.039,-0.032,-1.008,-0.85,-0.56,0.07,-0.04,0.08,-0.06,101822.479
2022-10-03 7:2:48.5730,0.032,-0.029,-1.012,-0.85,-0.56,0.07,-0.04,0.09,-0.07,101822.479
2022-10-03 7:2:48.5830,-0.015,-0.013,-1.017,-0.92,-0.54,0.19,-0.04,0.09,-0.07,101822.479
2022-10-03 7:2:48.5930,-0.039,-0.003,-1.028,-0.15,-0.79,0.26,-0.01,0.17,-0.07,101822.479
2022-10-03 7:2:48.6020,-0.056,-0.002,-1.012,0.02,-0.86,0.27,-0.01,0.2,-0.07,101822.479
2022-10-03 7:2:48.6130,-0.043,-0.014,-1.012,0.05,-0.76,0.12,-0.0,0.24,-0.06,101822.479
2022-10-03 7:2:48.6220,-0.043,-0.032,-1.008,0.05,-0.76,0.12,-0.0,0.26,-0.06,101822.479
2022-10-03 7:2:48.6320,-0.041,-0.05,-1.011,-0.02,-0.62,0.17,-0.0,0.29,-0.06,101822.479
2022-10-03 7:2:48.6420,-0.033,-0.046,-1.032,0.04,-0.4,0.09,0.0,0.3,-0.06,101822.479
2022-10-03 7:2:48.6520,-0.021,-0.05,-1.044,-0.07,-0.38,0.44,0.01,0.32,-0.06,101822.479
2022-10-03 7:2:48.6620,-0.012,-0.051,-1.047,-0.13,-0.35,0.49,0.02,0.33,-0.05,101822.479
2022-10-03 7:2:48.6720,0.006,-0.049,-1.038,-0.23,-0.37,0.47,0.03,0.34,-0.05,101822.479
2022-10-03 7:2:48.6820,0.026,-0.049,-1.022,-0.23,-0.37,0.47,0.04,0.35,-0.05,101822.479
2022-10-03 7:2:48.6920,0.042,-0.062,-1.007,-0.4,-0.3252119019627571,0.15507049798965455,0.05,0.34,-0.04,101822.479
2022-10-03 7:2:48.7020,0.053,-0.084,-0.993,-0.53,-0.33,0.15,0.05,0.34,-0.03,101822.479
2022-10-03 7:2:48.7110,0.056,-0.096,-0.996,-0.65,0.02,-0.03,0.05,0.33,-0.03,101822.479
2022-10-03 7:2:48.7220,0.067,-0.104,-1.005,-0.65,0.02,-0.03,0.05,0.33,-0.03,101822.479
2022-10-03 7:2:48.7320,0.081,-0.094,-1.025,-0.81,0.1,0.21,0.05,0.31,-0.03,101822.479
2022-10-03 7:2:48.7420,0.077,-0.096,-1.023,-0.79,0.01,0.31,0.06,0.32,-0.03,101822.479
2022-10-03 7:2:48.7510,0.079,-0.101,-1.021,-0.75,0.07,0.21,0.07,0.31,-0.02,101822.479
2022-10-03 7:2:48.7610,0.09,-0.101,-1.021,-0.76,0.11,0.26,0.07,0.3,-0.02,101822.479
2022-10-03 7:2:48.7720,0.104,-0.098,-1.036,-0.76,0.11,0.26,0.06,0.29,-0.01,101822.479
2022-10-03 7:2:48.7810,0.106,-0.116,-1.001,-0.95,0.02,0.42,0.09,0.29,-0.01,101822.479
2022-10-03 7:2:48.7910,0.114,-0.097,-1.014,-0.89,0.22,0.08,0.1,0.27,0.0,101822.479
2022-10-03 7:2:48.8010,0.109,-0.094,-1.019,-0.95,0.12,0.18,0.09,0.26,0.0,101822.479
2022-10-03 7:2:48.8110,0.081,-0.132,-0.999,-0.93,-0.03,0.29,0.1,0.27,0.01,101822.479
2022-10-03 7:2:48.8210,0.074,-0.161,-0.964,-0.75,0.15,0.05,0.09,0.27,0.02,101822.479
2022-10-03 7:2:48.8310,0.092,-0.158,-1.028,-0.43,0.59,-0.18,0.09,0.24,0.02,101822.479
2022-10-03 7:2:48.8410,0.1,-0.18,-0.975,-0.64,0.53,0.06,0.09,0.23,0.02,101822.479
2022-10-03 7:2:48.8510,0.09,-0.179,-1.012,-0.67,0.71,0.03,0.09,0.2,0.02,101822.479
2022-10-03 7:2:48.8610,0.057,-0.167,-0.984,-0.36,0.68,0.0,0.1,0.21,0.01,101822.479
2022-10-03 7:2:48.8710,0.045,-0.167,-1.007,-0.14,0.6,0.02,0.1,0.17,0.01,101822.479
2022-10-03 7:2:48.8810,0.046,-0.159,-1.017,-0.14,0.6,0.02,0.11,0.18,-0.0,101822.479
2022-10-03 7:2:48.8910,0.042,-0.099,-0.95,-0.1,0.61,0.2,0.09,0.1,0.01,101822.479
2022-10-03 7:2:48.9000,-0.023,-0.223,-1.03,0.36,0.54,-0.15,0.08,0.21,0.01,101822.479
2022-10-03 7:2:48.9100,0.006,-0.125,-0.907,0.36,0.54,-0.15,0.13,0.05,0.01,101822.479
2022-10-03 7:2:48.9210,-0.013,-0.103,-1.062,0.54,0.84,-0.29,0.09,0.27,0.0,101822.479
2022-10-03 7:2:48.9300,0.059,-0.194,-0.974,0.19,0.73,0.02,0.1,0.09,-0.0,101822.479
2022-10-03 7:2:48.9400,0.071,-0.118,-0.964,0.19,0.73,0.02,0.09,0.06,-0.0,101822.479
2022-10-03 7:2:48.9500,0.077,-0.159,-1.07,-0.3,0.22,-0.29,0.09,0.1,-0.01,101822.479
2022-10-03 7:2:48.9670,-0.004,-0.154,-0.917,0.25,0.42,-0.4,0.12,0.05,0.0,101822.479
2022-10-03 7:2:48.9720,0.005,-0.175,-0.965,0.25,0.42,-0.4,0.07,0.06,0.0,101822.479
2022-10-03 7:2:48.9800,0.054,-0.131,-1.104,0.53,0.6,-0.1,0.07,0.06,0.0,101822.479
2022-10-03 7:2:48.9900,0.02,-0.161,-0.834,0.21,0.29,-0.3,0.08,0.04,0.01,101822.479
2022-10-03 7:2:49.0000,0.061,-0.176,-1.087,0.21,0.29,-0.3,0.09,0.08,0.0,101822.479
2022-10-03 7:2:49.0100,0.061,-0.151,-0.854,-0.02,0.61,-0.22,0.08,0.05,0.01,101822.479
2022-10-03 7:2:49.0200,0.107,-0.195,-1.014,-0.37,0.62,-0.31,0.05,0.04,0.0,101822.479
2022-10-03 7:2:49.0300,0.166,-0.145,-0.946,-0.37,0.62,-0.31,0.12,-0.03,-0.0,101822.479
2022-10-03 7:2:49.0390,0.073,-0.099,-1.039,-0.67,-0.24,0.6,0.1,0.05,0.01,101822.479
2022-10-03 7:2:49.0500,0.039,-0.199,-0.986,-0.67,-0.24,0.6,0.09,0.02,0.02,101822.479
2022-10-03 7:2:49.0590,0.07,-0.217,-0.797,0.09,0.21,-0.13,0.08,-0.17,0.03,101822.479
2022-10-03 7:2:49.0690,0.141,-0.069,-1.212,-1.16,-0.37,1.47,0.08,0.18,0.02,101822.479
2022-10-03 7:2:49.0800,0.011,-0.193,-0.8,-1.16,-0.37,1.47,0.07,0.04,0.03,101822.479
2022-10-03 7:2:49.0890,0.148,-0.193,-1.077,-0.55,0.97,0.15,0.1,-0.03,0.03,101822.479
2022-10-03 7:2:49.0990,0.056,-0.088,-0.912,-0.55,0.97,0.15,0.11,0.01,-0.0,101822.479
2022-10-03 7:2:49.1090,-0.033,-0.201,-0.859,0.6,0.6,0.04,-0.04,-0.04,0.0,101822.479
2022-10-03 7:2:49.1190,-0.061,-0.123,-1.022,1.1,0.24,-1.55,0.06,0.01,-0.01,101822.479
2022-10-03 7:2:49.1290,-0.104,-0.139,-0.88,1.1,0.24,-1.55,0.02,-0.02,-0.01,101822.479
2022-10-03 7:2:49.1390,-0.109,-0.166,-1.001,1.56,0.32,-1.01,0.05,-0.01,-0.03,101822.479
2022-10-03 7:2:49.1490,-0.163,-0.108,-0.97,1.85,0.0,-0.12,0.12,0.09,-0.04,101822.479
2022-10-03 7:2:49.1590,-0.115,-0.175,-1.044,2.13,0.09,0.72,0.03,0.05,-0.02,101822.479
2022-10-03 7:2:49.1690,0.035,-0.212,-0.927,2.13,0.09,0.72,0.05,0.02,-0.01,101822.479
2022-10-03 7:2:49.1780,0.03,-0.209,-1.014,0.16,0.89,0.52,0.01,0.1,-0.01,101822.479
2022-10-03 7:2:49.1880,0.073,-0.179,-0.992,-0.02,0.58,-0.18,0.02,0.0,-0.01,101822.479
2022-10-03 7:2:49.1990,0.07,-0.156,-0.906,-0.12,0.33,-0.49,0.02,0.05,-0.02,101822.479
2022-10-03 7:2:49.2080,0.123,-0.136,-1.048,-0.12,0.33,-0.49,0.01,-0.02,-0.02,101822.479
2022-10-03 7:2:49.2180,0.11,-0.177,-0.827,-0.5,0.01,0.18,-0.01,-0.04,-0.03,101822.479
2022-10-03 7:2:49.2280,0.077,-0.17,-0.936,-0.65,0.35,-0.82,-0.03,-0.01,-0.03,101822.479
2022-10-03 7:2:49.2380,0.098,-0.17,-0.968,-0.33,0.32,-0.14,-0.02,-0.07,-0.04,101822.479
2022-10-03 7:2:49.2480,0.059,-0.165,-0.896,-0.28,0.41,-0.87,-0.01,-0.05,-0.03,101822.479
2022-10-03 7:2:49.2580,0.029,-0.17,-0.995,-0.28,0.41,-0.87,-0.04,-0.01,-0.04,101822.479
2022-10-03 7:2:49.2680,0.049,-0.153,-0.961,0.23,0.33,-0.09,-0.01,-0.09,-0.03,101822.479
2022-10-03 7:2:49.2780,0.007,-0.156,-1.019,0.1,0.25,-0.54,-0.02,-0.0,-0.04,101822.479
2022-10-03 7:2:49.2880,0.008,-0.157,-1.014,0.23,0.27,0.4,-0.02,-0.08,-0.03,101822.479
2022-10-03 7:2:49.2980,-0.014,-0.157,-0.997,0.48,0.28,0.35,-0.04,-0.0,-0.03,101822.479
2022-10-03 7:2:49.3080,-0.001,-0.155,-0.966,0.69,0.28,-0.41,-0.03,-0.05,-0.03,101822.479
2022-10-03 7:2:49.3180,0.03,-0.109,-1.049,0.22,-0.02,0.5,-0.01,-0.03,-0.03,101822.479
2022-10-03 7:2:49.3280,0.009,-0.135,-0.939,0.22,-0.02,0.5,-0.05,-0.04,-0.03,101822.479
2022-10-03 7:2:49.3380,0.029,-0.131,-0.966,0.37,-0.14,-0.04,-0.03,-0.06,-0.03,101822.479
2022-10-03 7:2:49.3480,0.022,-0.119,-0.982,0.29,0.14,-0.67,-0.06,-0.03,-0.04,101822.479
2022-10-03 7:2:49.3580,0.078,-0.133,-0.94,0.25,-0.11,0.3,-0.04,-0.12,-0.04,101822.479
2022-10-03 7:2:49.3680,0.081,-0.124,-1.003,-0.42,-0.02,0.15,-0.05,-0.08,-0.05,101822.479
2022-10-03 7:2:49.3770,0.056,-0.134,-0.972,-0.42,-0.02,0.15,-0.06,-0.12,-0.05,101822.479
2022-10-03 7:2:49.3870,0.041,-0.119,-1.0,0.03,-0.05,-0.07,-0.04,-0.09,-0.05,101822.479
2022-10-03 7:2:49.3970,0.042,-0.124,-0.978,0.03,-0.05,-0.07,-0.05,-0.12,-0.05,101822.479
2022-10-03 7:2:49.4070,0.033,-0.133,-1.017,0.05,0.02,0.03,-0.06,-0.1,-0.05,101822.479
2022-10-03 7:2:49.4170,0.012,-0.115,-0.993,0.25,-0.01,0.13,-0.04,-0.09,-0.04,101822.479
2022-10-03 7:2:49.4270,0.024,-0.113,-1.014,0.25,-0.01,0.13,-0.05,-0.11,-0.04,101822.479
2022-10-03 7:2:49.4370,0.016,-0.118,-1.013,0.26,-0.14,0.12,-0.05,-0.07,-0.04,101822.479
2022-10-03 7:2:49.4470,0.035,-0.119,-1.012,0.21,-0.06,0.31,-0.05,-0.09,-0.04,101822.479
2022-10-03 7:2:49.4570,0.057,-0.085,-0.992,0.13,-0.16,0.05,-0.05,-0.09,-0.04,101822.479
2022-10-03 7:2:49.4670,0.041,-0.11,-1.0,-0.03,-0.15,-0.02,-0.04,-0.12,-0.06,101822.479
2022-10-03 7:2:49.4770,0.04,-0.109,-0.994,0.0,-0.11,-0.17,-0.04,-0.14,-0.05,101822.479
2022-10-03 7:2:49.4870,0.011,-0.156,-0.994,0.25,0.25,0.23,-0.03,-0.12,-0.06,101822.479
2022-10-03 7:2:49.4970,0.069,-0.036,-1.021,0.25,0.25,0.23,0.0,-0.24,-0.05,101822.479
2022-10-03 7:2:49.5040,-0.109,-0.166,-1.027,-0.22,-0.4303821884840727,1.1,-0.07,0.03,-0.05,101822.479
2022-10-03 7:2:49.5160,0.024,-0.18,-0.936,0.88,0.72,-1.62,-0.04,-0.18,-0.07,101822.479
2022-10-03 7:2:49.5260,-0.016,-0.069,-1.021,0.88,0.72,-1.62,-0.04,-0.18,-0.07,101822.479
2022-10-03 7:2:49.5360,0.05,-0.074,-1.054,0.04,-0.16,0.68,-0.0,-0.16,-0.06,101822.479
2022-10-03 7:2:49.5460,0.121,-0.131,-0.979,-0.8,-0.14,0.26,-0.04,-0.18,-0.06,101822.479
2022-10-03 7:2:49.5560,0.059,-0.115,-1.01,-0.8,-0.14,0.26,-0.02,-0.11,-0.06,101822.479
2022-10-03 7:2:49.5660,0.019,-0.079,-0.949,-0.59,0.11,-0.16,-0.02,-0.11,-0.06,101822.479
2022-10-03 7:2:49.5760,-0.021,-0.121,-0.999,-0.02,-0.36,0.05,-0.03,-0.07,-0.05,101822.479
2022-10-03 7:2:49.5860,0.008,-0.106,-0.983,0.3,-0.21,-0.23,-0.02,-0.16,-0.05,101822.479
2022-10-03 7:2:49.5960,0.036,-0.092,-1.009,0.41,-0.03,-0.11,-0.01,-0.11,-0.06,101822.479
2022-10-03 7:2:49.6060,0.026,-0.105,-0.971,0.03,-0.21,-0.22,-0.0,-0.16,-0.06,101822.479
2022-10-03 7:2:49.6160,0.055,-0.111,-1.031,0.03,-0.21,-0.22,-0.0,-0.14,-0.06,101822.479
2022-10-03 7:2:49.6260,0.034,-0.087,-0.989,-0.3,-0.2,0.23,0.02,-0.11,-0.07,101822.479
2022-10-03 7:2:49.6360,0.09,-0.133,-0.939,-0.09,-0.25,-0.09,-0.02,-0.25,-0.06,101822.479
2022-10-03 7:2:49.6460,0.034,-0.126,-1.002,-0.4,0.26,-0.01,-0.0,-0.12,-0.06,101822.479
2022-10-03 7:2:49.6560,0.002,-0.095,-1.051,-0.4,0.26,-0.01,0.01,-0.11,-0.07,101822.479
2022-10-03 7:2:49.6650,-0.01,-0.123,-0.884,0.02,-0.53,0.02,0.04,-0.21,-0.06,101822.479
2022-10-03 7:2:49.6760,-0.055,-0.117,-0.985,0.16,0.17,-0.79,-0.05,-0.04,-0.06,101822.479
2022-10-03 7:2:49.6860,0.047,-0.11,-0.897,0.32,-0.04,-1.76,-0.03,-0.22,-0.06,101822.479
2022-10-03 7:2:49.6960,0.087,-0.115,-1.119,0.32,-0.04,-1.76,-0.02,-0.05,-0.06,101822.479
2022-10-03 7:2:49.7050,0.06,-0.068,-0.877,-1.0,0.01,1.62,0.01,-0.23,-0.06,101822.479
2022-10-03 7:2:49.7150,-0.007,-0.131,-1.049,-0.44,-0.77,-1.53,0.01,-0.03,-0.07,101822.479
2022-10-03 7:2:49.7250,-0.012,-0.085,-0.883,-0.23,0.13,0.74,-0.02,-0.18,-0.07,101822.479
2022-10-03 7:2:49.7350,0.032,-0.151,-1.009,-0.14,0.48,-0.11,0.01,-0.12,-0.07,101822.479
2022-10-03 7:2:49.7450,0.007,-0.104,-0.943,-0.1,-0.33,-0.14,-0.06,-0.1,-0.07,101822.479
2022-10-03 7:2:49.7550,0.059,-0.125,-0.98,-0.33,0.21,-0.53,-0.02,-0.17,-0.07,101822.479
2022-10-03 7:2:49.7650,0.008,-0.128,-0.96,-0.33,-0.06,0.02,-0.02,-0.06,-0.07,101822.479
2022-10-03 7:2:49.7750,0.028,-0.107,-0.921,-0.28,-0.06,0.02,-0.02,-0.19,-0.06,101822.479
2022-10-03 7:2:49.7850,0.018,-0.129,-0.981,-0.11,0.05,-0.77,-0.03,-0.04,-0.07,101822.479
2022-10-03 7:2:49.7950,0.04,-0.12,-0.909,-0.21,-0.05,-0.11,-0.02,-0.17,-0.06,101822.479
2022-10-03 7:2:49.8050,0.024,-0.149,-0.96,-0.33,0.05,-0.82,-0.04,-0.06,-0.06,101822.479
2022-10-03 7:2:49.8150,0.013,-0.148,-0.891,-0.27,0.18,-0.23,-0.04,-0.12,-0.06,101822.479
2022-10-03 7:2:49.8240,0.011,-0.164,-0.946,-0.23,0.29,-1.01,-0.06,-0.07,-0.06,101822.479
2022-10-03 7:2:49.8340,0.017,-0.156,-0.934,-0.05,0.39,-0.46,-0.04,-0.08,-0.06,101822.479
2022-10-03 7:2:49.8440,0.01,-0.173,-0.925,-0.1,0.47,-0.4,-0.06,-0.07,-0.06,101822.479
2022-10-03 7:2:49.8540,0.013,-0.16,-0.951,-0.18,0.47,-0.72,-0.05,-0.06,-0.07,101822.479
2022-10-03 7:2:49.8650,0.03,-0.179,-0.918,-0.18,0.47,-0.72,-0.06,-0.07,-0.07,101822.479
2022-10-03 7:2:49.8740,0.031,-0.182,-0.956,-0.39,0.61,-0.53,-0.07,-0.06,-0.07,101822.479
2022-10-03 7:2:49.8840,0.025,-0.206,-0.901,-0.39,0.61,-0.53,-0.07,-0.07,-0.07,101822.479
2022-10-03 7:2:49.8940,0.017,-0.207,-0.931,-0.26,0.88,-0.71,-0.09,-0.06,-0.07,101822.479
2022-10-03 7:2:49.9040,0.014,-0.215,-0.913,-0.26,0.88,-0.71,-0.08,-0.05,-0.07,101822.479
2022-10-03 7:2:49.9140,0.011,-0.21,-0.919,-0.18,0.97,-0.74,-0.09,-0.05,-0.06,101822.479
2022-10-03 7:2:49.9240,0.006,-0.213,-0.927,-0.19,0.96,-0.78,-0.1,-0.02,-0.06,101822.479
2022-10-03 7:2:49.9340,0.007,-0.21,-0.922,-0.11,0.97,-0.74,-0.11,-0.02,-0.06,101822.479
2022-10-03 7:2:49.9440,0.014,-0.204,-0.928,-0.11,0.97,-0.74,-0.12,-0.03,-0.06,101822.479
2022-10-03 7:2:49.9540,-0.005,-0.189,-0.935,-0.18,0.94,-0.63,-0.1,0.01,-0.06,101822.479
2022-10-03 7:2:49.9640,0.001,-0.185,-0.939,-0.1,0.82,-0.73,-0.13,-0.03,-0.05,101822.479
2022-10-03 7:2:49.9730,0.004,-0.195,-0.945,-0.09,0.79,-0.64,-0.13,0.03,-0.05,101822.479
2022-10-03 7:2:49.9840,0.001,-0.219,-0.939,-0.09,0.79,-0.64,-0.12,0.01,-0.05,101822.479
2022-10-03 7:2:49.9940,0.043,-0.236,-0.966,-0.06,0.99,-0.55,-0.15,0.0,-0.05,101822.479
2022-10-03 7:2:50.0030,0.064,-0.222,-0.95,-0.29,1.3,-0.19,-0.15,-0.01,-0.06,101822.479
2022-10-03 7:2:50.0130,0.012,-0.179,-0.976,-0.61,1.22,-0.43,-0.13,0.05,-0.06,101822.479
2022-10-03 7:2:50.0240,-0.036,-0.188,-0.959,-0.51,0.96,-0.41,-0.16,-0.01,-0.06,101822.479
2022-10-03 7:2:50.0330,-0.054,-0.145,-1.004,0.24,0.67,-0.16,-0.12,0.07,-0.05,101822.479
2022-10-03 7:2:50.0430,0.025,-0.048,-1.035,0.03,0.0,0.56,-0.13,0.01,-0.04,101822.479
2022-10-03 7:2:50.0530,0.015,-0.148,-0.884,0.03,0.0,0.56,-0.17,0.05,-0.05,101822.479
2022-10-03 7:2:50.0630,0.061,-0.15,-1.002,-0.12,1.16,-1.0,-0.14,0.04,-0.05,101822.479
2022-10-03 7:2:50.0730,0.027,-0.176,-0.955,-0.93,0.31,0.87,-0.24,-0.01,-0.04,101822.479
2022-10-03 7:2:50.0830,-0.007,-0.089,-1.064,-0.93,0.31,0.87,-0.08,0.15,-0.05,101822.479
2022-10-03 7:2:50.0930,0.056,-0.097,-1.082,-0.67,-0.53,0.84,-0.11,0.03,-0.05,101822.479
2022-10-03 7:2:50.1030,-0.027,-0.14,-0.982,0.21,0.88,0.19,-0.07,0.16,-0.05,101822.479
2022-10-03 7:2:50.1130,0.102,-0.094,-1.035,-0.69,-0.02,0.5,-0.12,-0.02,-0.04,101822.479
2022-10-03 7:2:50.1230,-0.006,-0.216,-0.98,-0.39,0.97,0.04,-0.1,0.17,-0.05,101822.479
2022-10-03 7:2:50.1320,0.052,-0.163,-0.985,-0.07,0.82,-0.48,-0.1,-0.02,-0.05,101822.479
2022-10-03 7:2:50.1420,-0.013,-0.187,-1.073,-0.07,0.82,-0.48,-0.09,0.17,-0.05,101822.777
2022-10-03 7:2:50.1520,-0.014,-0.212,-1.004,-0.29,0.8,0.48,-0.13,-0.01,-0.04,101822.777
2022-10-03 7:2:50.1620,0.069,-0.153,-1.057,0.56,1.16,0.41,-0.07,0.15,-0.05,101822.777
2022-10-03 7:2:50.1720,0.005,-0.175,-1.034,-0.63,0.95,0.36,-0.1,0.04,-0.04,101822.777
2022-10-03 7:2:50.1820,0.045,-0.162,-1.026,-0.06,0.64,0.54,-0.07,0.13,-0.04,101822.777
2022-10-03 7:2:50.1920,-0.024,-0.168,-1.012,-0.33,0.93,0.37,-0.08,0.12,-0.03,101822.777
2022-10-03 7:2:50.2020,0.038,-0.151,-1.073,0.12,0.8,0.6,-0.07,0.1,-0.03,101822.777
2022-10-03 7:2:50.2120,0.093,-0.141,-1.063,0.12,0.8,0.6,-0.06,0.11,-0.03,101822.777
2022-10-03 7:2:50.2220,0.087,-0.12,-1.083,-0.6,0.57,0.64,-0.04,0.06,-0.04,101822.777
2022-10-03 7:2:50.2320,0.009,-0.036,-1.066,-0.46,-0.3,0.84,0.01,0.18,-0.02,101822.777
2022-10-03 7:2:50.2420,0.02,-0.052,-1.035,0.36,-0.43,0.21,-0.05,0.08,-0.02,101822.777
2022-10-03 7:2:50.2520,0.07,-0.081,-1.049,-0.59,0.05,0.73,-0.04,0.12,-0.01,101822.777
2022-10-03 7:2:50.2620,0.093,-0.047,-1.053,-0.59,0.05,0.73,-0.03,0.1,-0.01,101822.777
2022-10-03 7:2:50.2720,0.112,-0.016,-1.085,-0.5,-0.23,0.42,0.0,0.13,-0.0,101822.777
2022-10-03 7:2:50.2820,0.092,-0.04,-1.09,-0.7,-0.56,0.98,-0.0,0.05,-0.0,101822.777
2022-10-03 7:2:50.2910,0.089,-0.032,-1.095,-0.7,-0.56,0.98,0.02,0.1,-0.01,101822.777
2022-10-03 7:2:50.3020,0.042,0.019,-1.083,-0.81,-0.35,0.91,0.04,0.04,-0.01,101822.777
2022-10-03 7:2:50.3120,0.045,-0.015,-1.05,-0.24,-0.85,0.98,0.06,0.1,-0.0,101822.777
2022-10-03 7:2:50.3210,0.008,-0.043,-1.022,0.06,-0.49,0.34,0.05,0.06,-0.0,101822.777
2022-10-03 7:2:50.3310,-0.003,-0.05,-0.999,0.22,-0.34,0.04,0.06,0.09,0.01,101822.777
2022-10-03 7:2:50.3410,-0.001,-0.039,-1.019,0.22,-0.34,0.04,0.06,0.09,0.01,101822.777
2022-10-03 7:2:50.3510,0.01,-0.059,-1.029,0.27,-0.4,0.18,0.06,0.09,0.01,101822.777
2022-10-03 7:2:50.3620,0.071,-0.054,-1.038,0.25,-0.35,0.31,0.05,0.05,0.01,101822.777
2022-10-03 7:2:50.3710,0.047,-0.038,-1.043,-0.24,-0.26,0.34,0.06,0.06,0.01,101822.777
2022-10-03 7:2:50.3810,0.054,-0.029,-1.063,-0.32,-0.44,0.43,0.08,0.04,0.01,101822.777
2022-10-03 7:2:50.3910,0.031,-0.025,-1.059,-0.14,-0.65,0.67,0.08,0.06,0.02,101822.777
2022-10-03 7:2:50.4010,0.033,-0.032,-1.036,-0.14,-0.65,0.67,0.09,0.06,0.02,101822.777
2022-10-03 7:2:50.4110,0.049,-0.031,-0.982,0.02,-0.54,0.51,0.07,0.03,0.03,101822.777
2022-10-03 7:2:50.4210,0.062,-0.041,-0.975,-0.26,-0.48,-0.22,0.07,0.05,0.03,101822.777
2022-10-03 7:2:50.4310,0.092,-0.034,-0.969,-0.26,-0.48,-0.22,0.06,-0.0,0.03,101822.777
2022-10-03 7:2:50.4410,0.073,-0.025,-0.968,-0.47,-0.55,-0.22,0.06,0.02,0.03,101822.777
2022-10-03 7:2:50.4510,0.037,-0.006,-0.968,-0.13,-0.78,-0.26,0.06,-0.01,0.03,101822.777
2022-10-03 7:2:50.4610,0.023,0.003,-0.96,0.02,-0.93,-0.33,0.07,0.01,0.03,101822.777
2022-10-03 7:2:50.4700,0.028,-0.005,-0.956,0.02,-0.93,-0.33,0.06,-0.01,0.03,101822.777
2022-10-03 7:2:50.4800,0.057,-0.018,-0.95,0.11,-0.91,-0.35,0.06,-0.02,0.03,101822.777
2022-10-03 7:2:50.4900,0.047,-0.023,-0.957,-0.21,-0.71,-0.4,0.05,-0.02,0.04,101822.777
2022-10-03 7:2:50.5010,0.038,-0.026,-0.95,-0.21,-0.71,-0.4,0.05,-0.03,0.04,101822.777
2022-10-03 7:2:50.5100,0.038,-0.027,-0.94,-0.09,-0.71,-0.39,0.04,-0.04,0.04,101822.777
2022-10-03 7:2:50.5200,0.041,-0.003,-0.958,-0.05,-0.65,-0.52,0.04,-0.03,0.04,101822.777
2022-10-03 7:2:50.5300,0.04,-0.005,-0.965,-0.1,-0.9,-0.31,0.03,-0.06,0.04,101822.777
2022-10-03 7:2:50.5400,0.033,-0.012,-0.955,-0.1,-0.9,-0.31,0.02,-0.07,0.04,101822.777
2022-10-03 7:2:50.5500,0.002,0.014,-0.943,-0.05,-0.97,-0.29,0.04,-0.01,0.05,101822.777
2022-10-03 7:2:50.5600,0.028,0.018,-0.939,0.15,-0.86,-0.62,-0.0,-0.11,0.05,101822.777
2022-10-03 7:2:50.5700,0.042,-0.017,-0.908,0.22,-1.23,-0.45,0.01,-0.05,0.05,101822.777
2022-10-03 7:2:50.5800,0.088,0.013,-0.939,-0.18,-0.89,-0.69,0.0,-0.09,0.06,101822.777
2022-10-03 7:2:50.5900,0.074,0.011,-0.926,-0.63,-1.15,-0.55,-0.01,-0.09,0.05,101822.777
2022-10-03 7:2:50.6000,0.049,0.003,-0.921,-0.63,-1.15,-0.55,-0.03,-0.11,0.05,101822.777
2022-10-03 7:2:50.6100,0.014,0.007,-0.939,-0.32,-0.97,-0.72,-0.03,-0.09,0.05,101822.777
2022-10-03 7:2:50.6190,-0.006,0.01,-0.936,0.01,-1.05,-0.62,-0.03,-0.08,0.05,101822.777
2022-10-03 7:2:50.6290,-0.002,0.019,-0.948,0.21,-0.99,-0.6,-0.05,-0.11,0.05,101822.777
2022-10-03 7:2:50.6390,0.017,0.034,-0.957,0.36,-1.13,-0.51,-0.03,-0.07,0.05,101822.777
2022-10-03 7:2:50.6490,0.003,0.022,-0.934,0.02,-1.22,-0.34,-0.04,-0.1,0.05,101822.777
2022-10-03 7:2:50.6590,0.021,0.018,-0.933,0.19,-1.24,-0.55,-0.04,-0.08,0.05,101822.777
2022-10-03 7:2:50.6690,0.022,0.027,-0.948,0.05,-1.1,-0.67,-0.05,-0.09,0.05,101822.777
2022-10-03 7:2:50.6790,0.03,0.006,-0.948,-0.03,-1.21,-0.47,-0.06,-0.08,0.06,101822.777
2022-10-03 7:2:50.6890,-0.006,0.004,-0.951,0.04,-0.98,-0.43,-0.07,-0.09,0.06,101822.777
2022-10-03 7:2:50.6990,-0.038,0.001,-0.957,0.04,-0.98,-0.43,-0.08,-0.08,0.06,101822.777
2022-10-03 7:2:50.7090,-0.027,0.018,-0.981,0.5,-0.93,-0.4,-0.07,-0.06,0.06,101822.777
2022-10-03 7:2:50.7190,-0.027,0.038,-0.997,0.48,-1.02,-0.28,-0.07,-0.05,0.06,101822.777
2022-10-03 7:2:50.7290,-0.022,0.03,-0.976,0.42,-1.23,-0.12635131359100343,-0.07,-0.03,0.06,101822.777
2022-10-03 7:2:50.7390,-0.013,0.021,-0.975,0.32,-1.12,-0.21,-0.07,-0.02,0.06,101822.777
2022-10-03 7:2:50.7480,0.01,0.012,-0.969,0.32,-1.12,-0.21,-0.08,-0.02,0.06,101822.777
2022-10-03 7:2:50.7590,0.032,0.012,-0.968,0.17,-1.05,-0.24,-0.09,-0.03,0.06,101822.777
2022-10-03 7:2:50.7680,0.022,0.018,-0.979,-0.12,-0.99,-0.29,-0.08,-0.01,0.06,101822.777
2022-10-03 7:2:50.7780,0.013,0.025,-0.982,-0.12,-1.03,-0.19,-0.09,-0.02,0.06,101822.777
2022-10-03 7:2:50.7880,0.014,0.028,-0.996,0.01,-1.1,-0.17,-0.08,-0.01,0.05,101822.777
2022-10-03 7:2:50.7980,0.023,0.026,-1.007,0.01,-1.12,-0.06,-0.08,0.0,0.06,101822.777
2022-10-03 7:2:50.8080,0.037,0.019,-1.005,-0.03,-1.13,0.07,-0.08,-0.01,0.06,101822.777
2022-10-03 7:2:50.8180,0.044,0.012,-1.008,-0.27,-0.99,0.09,-0.08,0.0,0.06,101822.777
2022-10-03 7:2:50.8280,0.049,0.005,-1.01,-0.32,-0.91,0.11,-0.07,-0.0,0.06,101822.777
2022-10-03 7:2:50.8380,0.04,0.009,-1.017,-0.32,-0.91,0.11,-0.07,0.01,0.06,101822.777
2022-10-03 7:2:50.8480,0.026,0.017,-1.022,-0.3,-0.88,0.16,-0.07,0.01,0.07,101822.777
2022-10-03 7:2:50.8580,0.02,0.015,-1.023,-0.15,-0.97,0.25,-0.07,0.02,0.07,101822.777
2022-10-03 7:2:50.8680,0.008,0.013,-1.025,-0.08,-0.96,0.26,-0.06,0.03,0.07,101822.777
2022-10-03 7:2:50.8780,0.003,0.007,-1.026,0.12,-0.89,0.28,-0.06,0.03,0.06,101822.777
2022-10-03 7:2:50.8880,0.007,0.001,-1.027,0.12,-0.81,0.27,-0.06,0.03,0.06,101822.777
2022-10-03 7:2:50.8970,0.01,-0.005,-1.036,0.12,-0.81,0.27,-0.05,0.03,0.06,101822.777
2022-10-03 7:2:50.9070,0.016,-0.016,-1.043,0.08,-0.6645316734910012,0.43848621010780336,-0.04,0.03,0.06,101822.777
2022-10-03 7:2:50.9180,0.018,-0.031,-1.045,0.02,-0.52,0.46,-0.04,0.03,0.06,101822.777
2022-10-03 7:2:50.9270,0.02,-0.044,-1.044,0.01,-0.39,0.46,-0.03,0.03,0.06,101822.777
2022-10-03 7:2:50.9370,0.026,-0.051,-1.041,-0.03,-0.29,0.44,-0.03,0.03,0.06,101822.777
2022-10-03 7:2:50.9470,0.035,-0.05,-1.037,-0.03,-0.29,0.44,-0.02,0.03,0.06,101822.777
2022-10-03 7:2:50.9570,0.046,-0.044,-1.037,-0.11,-0.25,0.41,-0.01,0.03,0.06,101822.777
2022-10-03 7:2:50.9670,0.039,-0.052,-1.028,-0.2201490580290556,-0.3,0.34,-0.0,0.03,0.06,101822.777
2022-10-03 7:2:50.9770,0.026,-0.066,-1.024,-0.23,-0.3,0.34,-0.0,0.03,0.06,101822.777
2022-10-03 7:2:50.9870,0.02,-0.078,-1.027,0.0,-0.04,0.27,0.01,0.03,0.06,101822.777
2022-10-03 7:2:50.9970,0.016,-0.082,-1.034,0.0,-0.04,0.27,0.01,0.03,0.06,101822.777
2022-10-03 7:2:51.0070,0.016,-0.089,-1.043,0.04,0.03,0.33,0.01,0.02,0.06,101822.777
2022-10-03 7:2:51.0170,0.013,-0.08,-1.059,0.07,0.07,0.41,0.03,0.03,0.05,101822.777
2022-10-03 7:2:51.0270,0.021,-0.056,-1.074,0.08,0.09,0.53,0.05,0.03,0.05,101822.777
2022-10-03 7:2:51.0370,0.021,-0.054,-1.063,0.05,-0.16,0.72,0.06,0.04,0.05,101822.777
2022-10-03 7:2:51.0470,0.012,-0.074,-1.035,-0.01,-0.27,0.72,0.07,0.04,0.05,101822.777
2022-10-03 7:2:51.0560,0.022,-0.087,-1.018,0.08,0.02,0.26,0.07,0.04,0.05,101822.777
2022-10-03 7:2:51.0660,0.04,-0.08,-1.013,0.08,0.02,0.26,0.08,0.04,0.05,101822.777
2022-10-03 7:2:51.0760,0.047,-0.08,-1.014,-0.1,0.05,0.14,0.08,0.02,0.05,101822.777
2022-10-03 7:2:51.0860,0.038,-0.086,-0.999,-0.18,0.06,0.03,0.09,0.04,0.05,101822.777
2022-10-03 7:2:51.0960,0.044,-0.089,-1.001,-0.18,0.06,0.03,0.08,-0.01,0.05,101822.777
2022-10-03 7:2:51.1060,0.043,-0.076,-1.018,-0.22,0.01,0.11,0.11,0.04,0.04,101822.777
2022-10-03 7:2:51.1160,0.034,-0.094,-1.013,-0.22,0.01,0.11,0.1,-0.03,0.05,101822.777
2022-10-03 7:2:51.1260,0.025,-0.099,-1.02,-0.1,-0.1,0.25,0.12,0.03,0.04,101822.777
2022-10-03 7:2:51.1360,0.033,-0.097,-1.033,-0.06,0.21,0.13,0.12,0.03,0.04,101822.777
2022-10-03 7:2:51.1460,0.032,-0.096,-1.029,-0.01,0.0,0.38,0.13,0.02,0.04,101822.975
2022-10-03 7:2:51.1560,0.029,-0.102,-1.02,-0.03,-0.02,0.3,0.12,-0.03,0.04,101822.975
2022-10-03 7:2:51.1660,-0.006,-0.122,-0.994,-0.03,-0.02,0.3,0.13,0.01,0.04,101822.975
2022-10-03 7:2:51.1760,-0.004,-0.111,-1.0,0.14,0.27,0.06,0.13,-0.01,0.03,101822.975
2022-10-03 7:2:51.1860,-0.008,-0.122,-0.983,0.283791980445385,0.2,-0.02,0.14,-0.01,0.04,101822.975
2022-10-03 7:2:51.1960,-0.007,-0.126,-0.977,0.28,0.2,-0.02,0.14,-0.01,0.04,101822.975
2022-10-03 7:2:51.2060,-0.012,-0.129,-0.972,0.35,0.28,-0.19,0.14,-0.01,0.03,101822.975
2022-10-03 7:2:51.2150,-0.006,-0.148,-0.965,0.34,0.4,-0.25,0.13,-0.02,0.04,101822.975
2022-10-03 7:2:51.2260,-0.01,-0.159,-0.959,0.31,0.54,-0.35,0.13,-0.01,0.03,101822.975
2022-10-03 7:2:51.2350,-0.009,-0.167,-0.964,0.36,0.6,-0.35,0.12,-0.02,0.03,101822.975
2022-10-03 7:2:51.2460,-0.004,-0.168,-0.969,0.36,0.6,-0.35,0.11,-0.03,0.02,101822.975
2022-10-03 7:2:51.2550,-0.005,-0.172,-0.974,0.27,0.65,-0.26,0.12,-0.03,0.02,101822.975
2022-10-03 7:2:51.2650,-0.015,-0.163,-0.985,0.27,0.65,-0.26,0.11,-0.04,0.02,101822.975
2022-10-03 7:2:51.2750,-0.001,-0.167,-1.001,0.31,0.6,-0.03,0.13,-0.03,0.02,101822.975
2022-10-03 7:2:51.2850,-0.009,-0.09,-0.926,0.31,0.6,-0.03,0.12,-0.09,0.03,101822.975
2022-10-03 7:2:51.2950,-0.01,-0.206,-0.968,0.56,0.52,-0.65,0.1,-0.03,0.02,101822.975
2022-10-03 7:2:51.3050,0.046,-0.169,-0.916,-0.37,0.93,0.24,0.1,-0.06,0.02,101822.975
2022-10-03 7:2:51.3150,-0.009,-0.17,-0.982,0.4,0.31,-1.2,0.12,0.0,0.02,101822.975
2022-10-03 7:2:51.3250,0.067,-0.199,-0.946,0.4,0.31,-1.2,0.06,-0.14,0.02,101822.975
2022-10-03 7:2:51.3350,0.025,-0.152,-1.013,-0.41,0.89,0.79,0.12,0.04,0.0,101822.975
2022-10-03 7:2:51.3450,0.026,-0.138,-1.017,-0.07,0.43,-0.93,0.09,-0.16,0.01,101822.975
2022-10-03 7:2:51.3540,-0.017,-0.126,-0.991,0.22,-0.01,-0.28,0.14,0.06,0.0,101822.975
2022-10-03 7:2:51.3650,-0.011,-0.163,-0.963,0.22,-0.01,-0.28,0.14,0.06,0.0,101822.975
2022-10-03 7:2:51.3750,-0.008,-0.209,-0.918,0.44,0.34,-0.1,0.09,0.07,0.0,101822.975
2022-10-03 7:2:51.3850,0.025,-0.148,-0.965,0.16,0.77,-0.27,0.09,-0.07,0.01,101822.975
2022-10-03 7:2:51.3940,-0.015,-0.207,-0.907,0.12,0.59,-0.27,0.06,0.03,0.0,101822.975
2022-10-03 7:2:51.4040,0.035,-0.17,-0.947,0.12,0.59,-0.27,0.05,-0.05,0.01,101822.975
2022-10-03 7:2:51.4140,0.042,-0.151,-0.988,0.14,0.76,-0.76,0.07,0.05,0.01,101822.975
2022-10-03 7:2:51.4240,0.091,-0.148,-0.945,-0.32,0.45,-0.1,0.05,-0.16,0.02,101822.975
2022-10-03 7:2:51.4340,0.095,-0.191,-1.01,-0.32,0.45,-0.1,0.09,0.09,0.01,101822.975
2022-10-03 7:2:51.4440,0.098,-0.099,-1.106,-0.66,-0.21,-0.62,0.08,0.06,0.02,101822.975
2022-10-03 7:2:51.4540,0.013,-0.22,-0.679,-0.14,0.79,-0.53,-0.01,-0.17,0.02,101822.975
2022-10-03 7:2:51.4640,0.204,-0.197,-1.172,-0.14,0.79,-0.53,0.02,0.17,0.01,101822.975
2022-10-03 7:2:51.4740,0.046,-0.19,-0.904,-1.11,0.36,-1.47,0.03,-0.08,0.03,101822.975
2022-10-03 7:2:51.4840,-0.036,-0.141,-0.978,-1.11,0.36,-1.47,0.01,0.07,-0.0,101822.975
2022-10-03 7:2:51.4930,0.053,-0.21,-0.963,0.5,0.66,1.47,0.03,-0.17,0.01,101822.975
2022-10-03 7:2:51.5030,-0.15,-0.17,-1.056,0.0,0.34,-1.23,0.12,0.05,0.01,101822.975
2022-10-03 7:2:51.5140,-0.172,-0.114,-0.875,0.64,0.57,-0.13,0.11,0.04,-0.0,101822.975
2022-10-03 7:2:51.5240,-0.059,-0.165,-1.032,2.09,0.03,-0.5,0.03,-0.02,-0.0,101822.975
2022-10-03 7:2:51.5340,-0.028,-0.203,-0.954,1.17,0.14,0.09,0.04,0.04,-0.0,101822.975
2022-10-03 7:2:51.5430,-0.003,-0.165,-0.997,0.51,0.61,-0.42,0.04,0.02,0.01,101822.975
2022-10-03 7:2:51.5530,0.011,-0.189,-0.932,0.2,0.4,-0.49,-0.0,0.03,0.01,101822.975
2022-10-03 7:2:51.5630,0.078,-0.165,-0.992,-0.39,0.57,-0.11,0.01,0.04,0.02,101822.975
2022-10-03 7:2:51.5730,0.06,-0.161,-0.941,-0.39,0.57,-0.11,-0.01,0.0,0.02,101822.975
2022-10-03 7:2:51.5830,0.092,-0.158,-0.951,-0.51,0.31,-0.08,-0.01,-0.01,0.02,101822.975
2022-10-03 7:2:51.5930,0.108,-0.151,-0.952,-0.51,0.31,-0.08,0.0,0.0,0.01,101822.975
2022-10-03 7:2:51.6030,0.079,-0.176,-0.921,-0.62,0.4,-0.35,-0.03,-0.03,0.01,101822.975
2022-10-03 7:2:51.6130,0.063,-0.168,-0.921,-0.62,0.4,-0.35,-0.04,-0.06,0.01,101822.975
2022-10-03 7:2:51.6230,-0.012,-0.16,-0.936,-0.59,0.41,-0.8,-0.04,0.02,0.0,101822.975
2022-10-03 7:2:51.6320,0.056,-0.139,-1.022,0.17,0.35,-0.49,-0.02,-0.02,0.0,101822.975
2022-10-03 7:2:51.6430,0.01,-0.131,-0.987,-0.16,-0.04,0.31,-0.03,-0.03,-0.0,101822.975
2022-10-03 7:2:51.6530,0.011,-0.169,-0.995,0.14,0.26,-0.07,-0.04,-0.02,0.0,101822.975
2022-10-03 7:2:51.6630,-0.008,-0.166,-0.995,0.2,0.42,0.04,-0.04,-0.01,0.0,101822.975
2022-10-03 7:2:51.6730,0.014,-0.138,-1.007,0.18,0.18,0.01,-0.04,-0.03,0.01,101822.975
2022-10-03 7:2:51.6830,0.002,-0.133,-1.033,0.08,0.05,0.46,-0.03,0.01,0.01,101822.975
2022-10-03 7:2:51.6930,0.003,-0.148,-0.959,0.23,0.11,-0.05,-0.05,-0.02,0.01,101822.975
2022-10-03 7:2:51.7030,0.025,-0.112,-0.954,0.23,0.11,-0.05,-0.03,-0.02,0.02,101822.975
2022-10-03 7:2:51.7130,-0.008,-0.147,-0.959,0.03,0.1,-0.45,-0.06,0.03,0.02,101822.975
2022-10-03 7:2:51.7220,0.012,-0.14,-0.892,0.09,-0.14,-0.18,-0.07,-0.06,0.01,101822.975
2022-10-03 7:2:51.7320,0.009,-0.152,-1.01,0.3,0.34,-0.96,-0.03,0.08,0.02,101822.975
2022-10-03 7:2:51.7420,0.043,-0.076,-0.952,0.16,-0.58,-0.78,-0.08,-0.05,0.01,101822.975
2022-10-03 7:2:51.7520,0.041,-0.184,-1.0,0.16,-0.58,-0.78,-0.07,0.02,-0.0,101822.975
2022-10-03 7:2:51.7620,0.057,-0.128,-0.986,-0.49,0.44,0.44,-0.08,-0.07,-0.01,101822.975
2022-10-03 7:2:51.7720,-0.005,-0.135,-1.013,-0.1,0.11,-0.5,-0.06,-0.02,-0.01,101822.975
2022-10-03 7:2:51.7820,-0.004,-0.134,-1.026,0.46,0.02,0.16,-0.07,-0.02,-0.0,101822.975
2022-10-03 7:2:51.7920,-0.013,-0.134,-1.0,0.46,0.02,0.16,-0.06,-0.03,0.0,101822.975
2022-10-03 7:2:51.8020,-0.002,-0.118,-1.022,0.16,0.25,0.17,-0.04,0.0,0.0,101822.975
2022-10-03 7:2:51.8110,0.026,-0.145,-0.978,0.33,-0.14,0.4,-0.05,-0.01,0.01,101822.975
2022-10-03 7:2:51.8210,-0.004,-0.134,-0.991,0.14,0.16,0.0,-0.05,0.01,0.01,101822.975
2022-10-03 7:2:51.8320,0.026,-0.113,-0.988,0.07,0.0,-0.06,-0.05,0.0,0.01,101822.975
2022-10-03 7:2:51.8420,0.029,-0.093,-0.99,0.07,0.0,-0.06,-0.04,-0.03,0.01,101822.975
2022-10-03 7:2:51.8510,0.023,-0.104,-1.002,-0.11,-0.21,-0.04,-0.04,0.01,0.0,101822.975
2022-10-03 7:2:51.8610,0.035,-0.099,-0.994,-0.1,-0.27,0.11,-0.04,-0.05,0.0,101822.975
2022-10-03 7:2:51.8710,0.021,-0.099,-1.007,-0.13,-0.27,0.08,-0.04,0.01,-0.0,101822.975
2022-10-03 7:2:51.8810,0.017,-0.101,-0.997,0.07,-0.17,0.0,-0.05,-0.04,0.0,101822.975
2022-10-03 7:2:51.8910,0.021,-0.087,-1.011,0.07,-0.17,0.0,-0.05,0.013813816010951996,0.0,101822.975
2022-10-03 7:2:51.9010,0.029,-0.094,-0.999,-0.04,-0.26,0.17,-0.04,-0.05,0.0,101822.975
2022-10-03 7:2:51.9110,0.026,-0.133,-0.991,0.02,-0.14,0.08,-0.02,-0.02,0.0,101822.975
2022-10-03 7:2:51.9210,0.021,-0.126,-0.992,-0.19,-0.1,0.26,-0.0,-0.01,0.0,101822.975
2022-10-03 7:2:51.9310,0.011,-0.124,-1.018,-0.01,0.15,-0.22,-0.02,0.0,0.0,101822.975
2022-10-03 7:2:51.9410,-0.02,-0.126,-0.995,0.23,0.17,0.18,-0.01,0.03,0.01,101822.975
2022-10-03 7:2:51.9510,-0.005,-0.094,-1.005,0.45,-0.37,-0.14,-0.04,0.09,0.01,101822.975
2022-10-03 7:2:51.9610,0.068,-0.047,-0.987,0.45,-0.37,-0.14,0.0,0.01,0.01,101822.975
2022-10-03 7:2:51.9710,-0.024,-0.136,-0.882,-0.34,-0.19,-0.54,-0.02,-0.01,0.01,101822.975
2022-10-03 7:2:51.9810,0.051,-0.121,-1.022,-0.04,-0.29,0.27,-0.02,0.05,-0.0,101822.975
2022-10-03 7:2:51.9910,0.026,-0.125,-0.957,-0.53,0.16,-0.06,-0.03,-0.03,-0.0,101822.975
2022-10-03 7:2:52.0010,0.0,-0.092,-0.981,-0.53,0.16,-0.06,0.0,-0.12,-0.01,101822.975
2022-10-03 7:2:52.0100,-0.012,-0.028,-1.119,-0.16,-1.0,0.79,0.03,0.07,-0.01,101822.975
2022-10-03 7:2:52.0210,-0.087,-0.172,-0.889,-0.16,-1.0,0.79,-0.03,-0.15,-0.0,101822.975
2022-10-03 7:2:52.0300,-0.007,-0.009,-1.053,1.27,-0.29529564633965494,0.12,0.04,0.18,-0.02,101822.975
2022-10-03 7:2:52.0400,0.062,-0.102,-0.932,0.11,-0.78,-0.04,0.0,-0.27,0.0,101822.975
2022-10-03 7:2:52.0500,0.155,-0.082,-1.024,0.11,-0.78,-0.04,0.01,0.19,-0.01,101822.975
2022-10-03 7:2:52.0600,0.08,-0.179,-0.846,-0.96,0.3,-1.48,-0.05,-0.18,0.02,101822.975
2022-10-03 7:2:52.0700,-0.025,-0.153,-0.99,0.08,0.53,-0.05,-0.04,0.12,0.01,101822.975
2022-10-03 7:2:52.0800,-0.064,-0.111,-0.886,0.77,0.01,-1.01,-0.03,-0.09,0.01,101822.975
2022-10-03 7:2:52.0900,0.004,-0.093,-1.057,0.43,-0.15,0.09,0.02,0.08,-0.0,101822.975
2022-10-03 7:2:52.1000,0.05,-0.104,-0.906,-0.1,-0.34,-0.04,-0.03,-0.12,-0.0,101822.975
2022-10-03 7:2:52.1100,0.098,-0.14,-0.982,-0.1,-0.34,-0.04,0.02,0.03,-0.0,101822.975
2022-10-03 7:2:52.1200,0.031,-0.132,-0.888,-0.85,0.23,-0.59,-0.03,-0.1,-0.0,101822.975
2022-10-03 7:2:52.1300,0.065,-0.169,-0.967,-0.53,0.47,-0.61,-0.02,-0.02,0.0,101822.975
2022-10-03 7:2:52.1400,-0.002,-0.155,-0.926,0.08,0.36,-0.44,-0.04,-0.06,0.0,101822.975
2022-10-03 7:2:52.1500,0.012,-0.17,-0.972,0.08,0.36,-0.44,-0.04,-0.02,0.0,101823.021
2022-10-03 7:2:52.1600,-0.012,-0.146,-0.976,0.03,0.51,-0.33,-0.03,-0.01,0.0,101823.021
2022-10-03 7:2:52.1700,0.012,-0.161,-0.941,0.27,0.37,-0.36,-0.04,-0.04,0.01,101823.021
2022-10-03 7:2:52.1790,0.025,-0.167,-0.926,0.15,0.32,-0.07,-0.04,-0.02,0.01,101823.021
2022-10-03 7:2:52.1890,-0.008,-0.182,-0.891,-0.09,0.52,-0.85,-0.05,-0.02,0.01,101823.021
2022-10-03 7:2:52.1990,0.006,-0.176,-0.968,0.13,0.57,-0.8,-0.05,-0.01,0.0,101823.021
2022-10-03 7:2:52.2090,0.006,-0.185,-0.922,0.09,0.62,-0.49,-0.06,-0.02,0.0,101823.021
2022-10-03 7:2:52.2190,0.014,-0.19,-0.941,0.05,0.76,-0.59,-0.07,-0.02,-0.0,101823.021
2022-10-03 7:2:52.2290,0.013,-0.19,-0.919,0.03,0.72,-0.68,-0.07,-0.02,-0.01,101823.021
2022-10-03 7:2:52.2390,0.015,-0.193,-0.923,0.02,0.78,-0.69,-0.08,-0.02,-0.01,101823.021
2022-10-03 7:2:52.2490,0.024,-0.193,-0.927,-0.05,0.79,-0.68,-0.09,-0.02,-0.01,101823.021
2022-10-03 7:2:52.2590,0.021,-0.189,-0.898,-0.05,0.79,-0.68,-0.1,-0.02,-0.01,101823.021
2022-10-03 7:2:52.2690,0.017,-0.183,-0.932,-0.07,0.78,-0.84,-0.1,-0.01,-0.01,101823.021
2022-10-03 7:2:52.2790,0.02,-0.178,-0.946,-0.01,0.66,-0.61,-0.1,0.0,0.0,101823.021
2022-10-03 7:2:52.2890,0.021,-0.18,-0.931,-0.09,0.7,-0.46,-0.11,-0.04,0.0,101823.021
2022-10-03 7:2:52.2990,0.008,-0.188,-0.932,0.04,0.75,-0.65,-0.11,-0.0,-0.0,101823.021
2022-10-03 7:2:52.3090,0.012,-0.2,-0.937,0.06,0.88,-0.66,-0.11,-0.05,0.0,101823.021
2022-10-03 7:2:52.3180,0.001,-0.194,-0.964,0.06,0.88,-0.66,-0.15,0.01,0.0,101823.021
2022-10-03 7:2:52.3280,0.033,-0.178,-0.917,0.1,0.92,-0.22,-0.14,-0.03,0.0,101823.021
2022-10-03 7:2:52.3380,0.043,-0.186,-1.023,-0.33,0.74,0.03,-0.14,-0.02,0.0,101823.021
2022-10-03 7:2:52.3480,0.015,-0.2,-0.96,-0.09,0.95,-0.09,-0.15,-0.01,-0.01,101823.021
2022-10-03 7:2:52.3580,-0.001,-0.206,-0.991,0.05,1.0,-0.26,-0.12,0.0,-0.01,101823.021
2022-10-03 7:2:52.3680,-0.037,-0.194,-0.984,0.05,1.0,-0.26,-0.14,0.03,-0.01,101823.021
2022-10-03 7:2:52.3780,0.012,-0.183,-0.962,0.45,0.98,0.03,-0.13,-0.03,-0.0,101823.021
2022-10-03 7:2:52.3880,0.013,-0.18,-1.011,-0.12,0.83,0.12,-0.11,0.04,-0.01,101823.021
2022-10-03 7:2:52.3980,0.008,-0.173,-0.966,-0.12,0.83,0.12,-0.15,-0.05,-0.01,101823.021
2022-10-03 7:2:52.4080,0.058,-0.103,-0.981,-0.31,0.54,0.07,-0.13,0.07,-0.01,101823.021
2022-10-03 7:2:52.4180,0.046,-0.138,-0.891,-0.31,0.54,0.07,-0.17,-0.1,0.0,101823.021
2022-10-03 7:2:52.4280,0.019,-0.191,-1.041,-0.12,1.0,0.49,-0.17,0.1,-0.02,101823.021
2022-10-03 7:2:52.4380,-0.008,-0.151,-0.914,-0.12,1.0,0.49,-0.17,-0.15,0.0,101823.021
2022-10-03 7:2:52.4480,-0.091,-0.194,-1.098,0.94,0.81,0.45,-0.07,0.17,-0.01,101823.021
2022-10-03 7:2:52.4580,-0.002,-0.188,-0.992,0.94,0.81,0.45,-0.13,-0.06,0.01,101823.021
2022-10-03 7:2:52.4670,0.046,-0.209,-1.094,0.03,1.07,0.14,-0.07,0.12,-0.01,101823.021
2022-10-03 7:2:52.4780,0.115,-0.128,-1.03,-1.06,0.78,1.2,-0.14,-0.04,0.0,101823.021
2022-10-03 7:2:52.4880,0.012,-0.204,-0.977,-1.06,0.78,1.2,-0.1,0.07,-0.01,101823.021
2022-10-03 7:2:52.4970,0.057,-0.169,-1.081,-0.19,0.75,-0.66,-0.09,-0.03,-0.0,101823.021
2022-10-03 7:2:52.5070,0.001,-0.184,-1.027,-0.2,0.67,0.39,-0.09,0.06,-0.01,101823.021
2022-10-03 7:2:52.5180,0.061,-0.164,-1.04,-0.2,0.67,0.39,-0.09,0.06,-0.01,101823.021
2022-10-03 7:2:52.5270,0.016,-0.127,-1.039,-0.48,0.32,0.65,-0.06,0.05,-0.0,101823.021
2022-10-03 7:2:52.5370,0.046,-0.164,-1.049,0.08,0.75,0.24,-0.08,-0.01,0.0,101823.021
2022-10-03 7:2:52.5470,0.023,-0.116,-1.016,-0.32,0.46,0.45,-0.07,0.01,0.01,101823.021
2022-10-03 7:2:52.5570,0.007,-0.149,-1.045,0.17,0.6,0.21,-0.06,0.07,0.01,101823.021
2022-10-03 7:2:52.5670,0.067,-0.097,-1.075,0.17,0.6,0.21,-0.07,-0.05,0.01,101823.021
2022-10-03 7:2:52.5770,0.001,-0.022,-1.091,-0.4,-0.4,0.9,0.0,0.11,0.01,101823.021
2022-10-03 7:2:52.5870,-0.048,-0.094,-1.031,-0.4,-0.4,0.9,-0.05,-0.02,0.02,101823.021
2022-10-03 7:2:52.5970,0.056,-0.052,-1.027,0.86,-0.13,0.58,-0.02,0.06,0.01,101823.021
2022-10-03 7:2:52.6060,0.067,-0.001,-1.097,-0.16,-0.07,0.21,-0.03,0.07,0.02,101823.021
2022-10-03 7:2:52.6170,0.125,-0.008,-1.043,-0.9,-0.71,0.86,-0.03,-0.02,0.02,101823.021
2022-10-03 7:2:52.6260,0.094,-0.012,-1.07,-0.9,-0.71,0.44,0.01,0.04,0.02,101823.021
2022-10-03 7:2:52.6370,0.082,-0.015,-1.113,-0.58,-0.69,1.1,0.01,0.01,0.02,101823.021
2022-10-03 7:2:52.6460,0.06,-0.02,-1.03,-0.58,-0.69,1.1,0.0,-0.02,0.02,101823.021
2022-10-03 7:2:52.6560,0.035,-0.007,-1.074,-0.49,-0.57,0.56,0.03,0.02,0.02,101823.021
2022-10-03 7:2:52.6660,0.029,-0.021,-1.042,-0.24,-0.65,0.61,0.03,-0.04,0.02,101823.021
2022-10-03 7:2:52.6760,0.019,-0.031,-1.041,-0.1,-0.49,0.41,0.06,0.01,0.03,101823.021
2022-10-03 7:2:52.6860,0.005,-0.039,-1.022,0.19,-0.5,0.28,0.05,0.01,0.03,101823.021
2022-10-03 7:2:52.6960,0.017,-0.059,-0.987,0.06,-0.27,0.04,0.03,-0.03,0.03,101823.021
2022-10-03 7:2:52.7060,0.007,-0.068,-1.016,0.06,-0.27,0.04,0.05,0.01,0.03,101823.021
2022-10-03 7:2:52.7160,-0.003,-0.065,-1.015,0.23,-0.15,0.17,0.04,-0.02,0.03,101823.021
2022-10-03 7:2:52.7260,-0.022,-0.042,-1.02,0.23,-0.15,0.17,0.05,-0.01,0.03,101823.021
2022-10-03 7:2:52.7360,-0.006,-0.028,-1.053,0.35,-0.3,0.18,0.06,0.01,0.03,101823.021
2022-10-03 7:2:52.7460,0.009,-0.028,-1.018,0.36,-0.52,0.47,0.06,-0.01,0.03,101823.021
2022-10-03 7:2:52.7560,0.011,-0.039,-0.998,0.09,-0.48,0.03,0.06,0.01,0.04,101823.021
2022-10-03 7:2:52.7660,0.026,-0.042,-0.995,0.09,-0.48,0.03,0.05,-0.01,0.04,101823.021
2022-10-03 7:2:52.7750,0.054,-0.049,-0.982,0.07,-0.45,0.01,0.05,-0.02,0.04,101823.021
2022-10-03 7:2:52.7860,0.04,-0.033,-0.991,-0.26,-0.37,-0.12,0.05,-0.03,0.04,101823.021
2022-10-03 7:2:52.7950,0.022,-0.017,-0.982,-0.09,-0.64,-0.09,0.05,-0.04,0.04,101823.021
2022-10-03 7:2:52.8060,0.0,-0.005,-0.967,0.15,-0.78,-0.25,0.05,-0.04,0.04,101823.021
2022-10-03 7:2:52.8150,0.01,-0.002,-0.968,0.13,-0.84,-0.27,0.05,-0.04,0.04,101823.021
2022-10-03 7:2:52.8250,0.006,0.001,-0.958,0.11,-0.87,-0.34,0.05,-0.04,0.04,101823.021
2022-10-03 7:2:52.8350,0.013,-0.005,-0.952,0.11,-0.87,-0.34,0.04,-0.03,0.04,101823.021
2022-10-03 7:2:52.8450,0.016,-0.021,-0.946,0.09,-0.88,-0.42,0.03,-0.04,0.04,101823.021
2022-10-03 7:2:52.8550,0.008,-0.012,-0.951,0.03,-0.71,-0.48,0.03,-0.04,0.04,101823.021
2022-10-03 7:2:52.8650,-0.009,-0.005,-0.957,0.22,-0.82,-0.4,0.02,-0.05,0.04,101823.021
2022-10-03 7:2:52.8750,-0.011,0.005,-0.969,0.22,-0.82,-0.4,0.03,-0.04,0.04,101823.021
2022-10-03 7:2:52.8840,0.005,-0.03,-0.964,0.27,-0.91,-0.31,-0.0,-0.1,0.03,101823.021
2022-10-03 7:2:52.8950,-0.049,0.011,-0.979,0.21,-0.85,-0.26,0.04,0.01,0.03,101823.021
2022-10-03 7:2:52.9040,-0.029,0.032,-0.98,0.34,-0.62,-0.39,-0.0,-0.13,0.04,101823.021
2022-10-03 7:2:52.9150,-0.002,-0.0,-0.949,0.71,-1.29,0.01,-0.0,-0.13,0.04,101823.021
2022-10-03 7:2:52.9250,0.039,-0.012,-0.97,0.14,-0.97,-0.31,0.02,-0.1,0.03,101823.021
2022-10-03 7:2:52.9340,0.037,-0.011,-0.938,-0.01,-0.84,-0.45,-0.02,-0.11,0.03,101823.021
2022-10-03 7:2:52.9450,-0.007,0.006,-0.966,-0.31,-0.74,-0.46,-0.0,-0.09,0.03,101823.021
2022-10-03 7:2:52.9540,-0.037,0.019,-0.958,0.51,-1.09,-0.36,-0.0,-0.12,0.03,101823.021
2022-10-03 7:2:52.9650,-0.051,0.014,-0.959,0.51,-1.09,-0.36,0.0,-0.07,0.03,101823.021
2022-10-03 7:2:52.9740,-0.059,0.027,-0.973,0.42,-1.04,-0.43,-0.01,-0.12,0.02,101823.021
2022-10-03 7:2:52.9840,-0.028,0.04,-0.963,0.81,-1.12,-0.25,-0.0,-0.08,0.02,101823.021
2022-10-03 7:2:52.9940,-0.027,0.029,-0.958,0.4,-1.24,-0.38,-0.01,-0.12,0.02,101823.021
2022-10-03 7:2:53.0040,-0.006,0.009,-0.942,0.4,-1.24,-0.38,-0.03,-0.14,0.01,101823.021
2022-10-03 7:2:53.0140,-0.023,0.02,-0.983,0.15,-1.03,-0.26,-0.02,-0.12,0.01,101823.021
2022-10-03 7:2:53.0240,-0.033,0.033,-0.99,0.38,-1.18,-0.1,-0.03,-0.14,0.01,101823.021
2022-10-03 7:2:53.0340,-0.047,0.04,-0.99,0.38,-1.18,-0.1,-0.03,-0.15,0.01,101823.021
2022-10-03 7:2:53.0440,-0.071,0.04,-0.996,0.36,-1.27,-0.05,-0.02,-0.16,0.01,101823.021
2022-10-03 7:2:53.0540,-0.064,0.048,-1.001,0.65,-1.34,-0.01,-0.02,-0.16,-0.0,101823.021
2022-10-03 7:2:53.0640,-0.073,0.049,-1.001,0.65,-1.38,0.08,-0.02,-0.17,-0.0,101823.021
2022-10-03 7:2:53.0740,-0.069,0.034,-0.978,0.65,-1.38,0.08,-0.02,-0.17,-0.01,101823.021
2022-10-03 7:2:53.0830,-0.07,0.016,-0.976,0.67,-1.28,-0.09,-0.02,-0.17,-0.01,101823.021
2022-10-03 7:2:53.0940,-0.06,0.005,-0.977,0.6,-1.1,-0.2,-0.03,-0.18,-0.01,101823.021
2022-10-03 7:2:53.1030,-0.048,0.004,-0.977,0.59,-0.95,-0.22,-0.03,-0.19,-0.01,101823.021
2022-10-03 7:2:53.1130,-0.046,0.004,-0.985,0.36,-0.91,-0.13,-0.03,-0.18,-0.01,101823.021
2022-10-03 7:2:53.1230,-0.023,-0.002,-0.99,0.36,-0.91,-0.13,-0.03,-0.19,-0.01,101823.021
2022-10-03 7:2:53.1330,0.001,-0.011,-0.994,0.2,-0.89,-0.09,-0.03,-0.18,-0.01,101823.021
2022-10-03 7:2:53.1430,0.02,-0.015,-1.001,-0.3,-0.72,0.02,-0.03,-0.18,-0.01,101823.021
2022-10-03 7:2:53.1530,0.037,-0.021,-0.996,-0.3,-0.72,0.02,-0.03,-0.18,-0.01,101823.044
2022-10-03 7:2:53.1630,0.046,-0.034,-1.003,-0.63,-0.55,0.02,-0.03,-0.17,-0.0,101823.044
2022-10-03 7:2:53.1730,0.063,-0.028,-1.008,-0.63,-0.55,0.02,-0.04,-0.17,0.01,101823.044
2022-10-03 7:2:53.1830,0.071,-0.014,-1.012,-0.92,-0.65,0.13,-0.03,-0.17,0.01,101823.044
2022-10-03 7:2:53.1920,0.071,0.001,-1.024,-0.92,-0.65,0.13,-0.02,-0.15,0.01,101823.044
2022-10-03 7:2:53.2030,0.061,0.005,-1.022,-0.92,-0.89,0.26,-0.02,-0.15,0.02,101823.044
2022-10-03 7:2:53.2130,0.054,0.007,-1.02,-0.92,-0.89,0.26,-0.01,-0.13,0.02,101823.044
2022-10-03 7:2:53.2230,0.051,0.006,-1.011,-0.84,-0.89,0.25,-0.01,-0.12,0.02,101823.044
2022-10-03 7:2:53.2320,0.041,-0.004,-1.003,-0.78,-0.84,0.07,-0.01,-0.11,0.02,101823.044
2022-10-03 7:2:53.2430,0.012,-0.019,-1.0,-0.78,-0.84,0.07,-0.01,-0.08,0.03,101823.044
2022-10-03 7:2:53.2520,-0.005,-0.027,-0.999,-0.31,-0.6,0.02,-0.0,-0.05,0.03,101823.044
2022-10-03 7:2:53.2620,-0.002,-0.027,-1.006,-0.28,-0.57,0.05,0.01,-0.03,0.03,101823.044
2022-10-03 7:2:53.2720,-0.012,-0.036,-1.007,-0.26,-0.56,0.13,0.02,0.0,0.03,101823.044
2022-10-03 7:2:53.2820,-0.034,-0.059,-0.997,-0.06,-0.36,0.04,0.02,0.04,0.03,101823.044
2022-10-03 7:2:53.2920,-0.052,-0.081,-0.99,0.18,-0.12,-0.05,0.02,0.05,0.03,101823.044
2022-10-03 7:2:53.3020,-0.047,-0.086,-1.007,0.19,-0.01,0.03,0.02,0.08,0.03,101823.044
2022-10-03 7:2:53.3120,-0.045,-0.086,-1.012,0.18,-0.01,0.15,0.03,0.1,0.03,101823.044
2022-10-03 7:2:53.3220,-0.043,-0.089,-1.012,0.17,0.01,0.15,0.03,0.13,0.03,101823.044
2022-10-03 7:2:53.3320,-0.042,-0.087,-1.017,0.17,0.01,0.15,0.04,0.15,0.02,101823.044
2022-10-03 7:2:53.3420,-0.05,-0.08,-1.018,0.16,-0.01,0.2,0.05,0.17,0.02,101823.044
2022-10-03 7:2:53.3520,-0.049,-0.071,-1.015,0.23,-0.04,0.19,0.05,0.18,0.01,101823.044
2022-10-03 7:2:53.3620,-0.032,-0.07,-1.018,0.17,-0.2,0.21,0.06,0.21,0.01,101823.044
2022-10-03 7:2:53.3720,-0.026,-0.073,-1.009,0.17,-0.2,0.21,0.06,0.21,0.01,101823.044
2022-10-03 7:2:53.3820,-0.032,-0.076,-1.008,0.11,-0.16,0.14,0.07,0.22,0.01,101823.044
2022-10-03 7:2:53.3910,-0.032,-0.079,-0.999,0.11,-0.16,0.14,0.07,0.24,0.01,101823.044
2022-10-03 7:2:53.4090,-0.017,-0.085,-0.992,0.12,-0.11,-0.02,0.07,0.24,0.01,101823.044
2022-10-03 7:2:53.4120,-0.003,-0.09,-0.99,0.12,-0.11,-0.02,0.07,0.24,0.01,101823.044
2022-10-03 7:2:53.4220,0.006,-0.089,-1.0,-0.03,-0.03,-0.06,0.07,0.26,0.01,101823.044
2022-10-03 7:2:53.4320,0.014,-0.094,-1.004,-0.1,-0.06,-0.02,0.08,0.27,0.01,101823.044
2022-10-03 7:2:53.4410,0.026,-0.104,-0.997,-0.17,-0.02,0.09,0.07,0.27,0.01,101823.044
2022-10-03 7:2:53.4510,0.035,-0.11,-1.003,-0.23,0.05,0.01,0.07,0.27,0.01,101823.044
2022-10-03 7:2:53.4610,0.038,-0.113,-1.001,-0.33,0.11,0.05,0.08,0.27,0.02,101823.044
2022-10-03 7:2:53.4710,0.049,-0.113,-1.002,-0.35,0.16,0.05,0.09,0.26,0.01,101823.044
2022-10-03 7:2:53.4810,0.063,-0.111,-1.006,-0.38,0.16,0.05,0.09,0.24,0.01,101823.044
2022-10-03 7:2:53.4910,0.057,-0.113,-0.998,-0.5,0.12,0.06,0.09,0.24,0.01,101823.044
2022-10-03 7:2:53.5010,0.049,-0.126,-0.984,-0.5,0.12,0.06,0.09,0.21,0.01,101823.044
2022-10-03 7:2:53.5110,0.043,-0.135,-0.985,-0.38,0.19,-0.07,0.09,0.21,0.01,101823.044
2022-10-03 7:2:53.5210,0.035,-0.134,-0.994,-0.22,0.3,-0.05,0.09,0.2,0.01,101823.044
2022-10-03 7:2:53.5310,0.024,-0.143,-1.001,-0.11,0.35,0.04,0.09,0.2,0.01,101823.044
2022-10-03 7:2:53.5410,0.009,-0.153,-0.998,0.04,0.45,0.05,0.09,0.19,0.01,101823.044
2022-10-03 7:2:53.5500,-0.002,-0.159,-0.998,0.23,0.51,0.04,0.09,0.18,0.01,101823.044
2022-10-03 7:2:53.5610,0.008,-0.152,-1.003,0.23,0.51,0.04,0.1,0.18,0.01,101823.044
2022-10-03 7:2:53.5710,0.003,-0.153,-0.997,0.23,0.4,0.06,0.1,0.16,0.02,101823.044
2022-10-03 7:2:53.5810,0.005,-0.172,-0.979,0.22,0.55,-0.06,0.09,0.15,0.02,101823.044
2022-10-03 7:2:53.5910,-0.002,-0.156,-0.971,0.22,0.55,-0.06,0.1,0.14,0.02,101823.044
2022-10-03 7:2:53.6010,0.01,-0.138,-0.982,0.31,0.58,-0.24,0.1,0.13,0.01,101823.044
2022-10-03 7:2:53.6100,0.019,-0.146,-0.962,0.25,0.26,-0.12,0.09,0.1,0.01,101823.044
2022-10-03 7:2:53.6200,0.011,-0.145,-0.965,0.16,0.32,-0.27,0.08,0.09,0.0,101823.044
2022-10-03 7:2:53.6300,0.003,-0.149,-0.98,0.18,0.33,-0.3,0.08,0.08,-0.0,101823.044
2022-10-03 7:2:53.6400,-0.014,-0.149,-0.992,0.24,0.33,-0.18,0.08,0.07,-0.0,101823.044
2022-10-03 7:2:53.6500,-0.012,-0.146,-1.005,0.46,0.33,0.06,0.08,0.06,0.0,101823.044
2022-10-03 7:2:53.6600,0.0,-0.114,-0.968,0.46,0.33,0.06,0.09,-0.03,-0.0,101823.044
2022-10-03 7:2:53.6700,0.043,-0.215,-1.02,0.46,0.05,0.02,0.12,0.09,-0.01,101823.044
2022-10-03 7:2:53.6800,0.03,-0.132,-0.937,0.19,0.48,-0.4,0.08,-0.09,-0.0,101823.044
2022-10-03 7:2:53.6890,0.056,-0.194,-1.03,0.19,0.48,-0.4,0.11,0.05,-0.0,101823.044
2022-10-03 7:2:53.6990,0.021,-0.188,-0.974,-0.44,0.3,0.24,0.06,-0.06,0.0,101823.044
2022-10-03 7:2:53.7100,0.052,-0.121,-0.977,-0.35,0.34,0.13,0.14,-0.02,0.0,101823.044
2022-10-03 7:2:53.7190,-0.013,-0.167,-1.033,-0.35,0.34,0.13,0.06,0.14,0.0,101823.044
2022-10-03 7:2:53.7300,0.051,-0.206,-0.875,0.16,1.22,-0.13,0.07,-0.22,0.01,101823.044
2022-10-03 7:2:53.7390,0.058,-0.132,-1.045,0.16,1.22,-0.13,0.09,0.15,-0.0,101823.044
2022-10-03 7:2:53.7490,0.014,-0.204,-0.946,0.39,0.89,0.68,0.02,-0.22,-0.01,101823.044
2022-10-03 7:2:53.7590,0.109,-0.17,-0.956,0.39,0.89,0.68,0.09,0.01,-0.01,101823.044
2022-10-03 7:2:53.7680,0.07,-0.13,-1.084,-0.67,0.41,-0.82,0.07,-0.13,-0.02,101823.044
2022-10-03 7:2:53.7790,0.057,-0.106,-0.976,-0.37,0.26,0.49,0.08,-0.08,-0.01,101823.044
2022-10-03 7:2:53.7890,-0.019,-0.128,-0.975,-0.52,-0.2,0.4,0.04,-0.08,-0.01,101823.044
2022-10-03 7:2:53.7990,0.02,-0.204,-0.976,0.43,-0.15,-0.41,0.05,-0.08,-0.0,101823.044
2022-10-03 7:2:53.8090,0.025,-0.146,-0.941,0.04,0.45,-0.69,0.06,-0.03,0.01,101823.044
2022-10-03 7:2:53.8190,0.033,-0.196,-1.026,0.04,0.45,-0.69,0.04,-0.04,0.02,101823.044
2022-10-03 7:2:53.8290,0.046,-0.177,-0.961,0.11,0.4,-0.33,-0.0,-0.11,0.03,101823.044
2022-10-03 7:2:53.8390,0.072,-0.168,-0.895,-0.23,0.38,-0.93,-0.01,-0.05,-0.02,101823.044
2022-10-03 7:2:53.8460,0.125,-0.113,-1.025,-0.8918019823729992,0.14,-0.97,0.02,-0.29,0.01,101823.044
2022-10-03 7:2:53.8580,-0.053,-0.077,-1.005,-0.9,0.14,-0.97,0.05,0.13,0.01,101823.044
2022-10-03 7:2:53.8680,0.033,-0.16,-0.725,0.05,-0.54,3.14,0.11,-0.31,0.01,101823.044
2022-10-03 7:2:53.8780,0.024,-0.201,-1.305,0.5,-0.32,-5.35,0.07,-0.18,-0.01,101823.044
2022-10-03 7:2:53.8880,-0.07,-0.149,-0.7,0.69,0.24,-1.27,0.05,0.23,-0.01,101823.044
2022-10-03 7:2:53.8980,-0.008,-0.189,-1.107,0.69,0.42,-1.25,-0.02,-0.16,-0.0,101823.044
2022-10-03 7:2:53.9080,-0.069,-0.191,-1.05,0.43,0.75,2.26,0.07,0.06,-0.03,101823.044
2022-10-03 7:2:53.9180,0.003,-0.163,-0.946,0.43,0.75,2.26,0.04,-0.09,-0.03,101823.044
2022-10-03 7:2:53.9280,-0.009,-0.175,-1.054,0.79,0.22,-1.54,0.04,-0.02,-0.02,101823.044
2022-10-03 7:2:53.9380,0.004,-0.156,-0.967,-0.11,0.43,0.89,-0.0,-0.05,-0.02,101823.044
2022-10-03 7:2:53.9480,0.022,-0.151,-0.955,0.58,0.3,-0.14,-0.02,-0.02,-0.0,101823.044
2022-10-03 7:2:53.9580,-0.027,-0.146,-0.919,-0.29,0.16,-0.33,0.02,-0.12,-0.0,101823.044
2022-10-03 7:2:53.9680,0.067,-0.133,-0.91,-0.23,-0.03,-1.22,0.01,-0.03,-0.0,101823.044
2022-10-03 7:2:53.9780,0.02,-0.147,-0.928,-0.23,-0.03,-1.22,-0.02,-0.1,0.01,101823.044
2022-10-03 7:2:53.9880,0.045,-0.15,-0.88,-0.19,0.1,-0.39,-0.04,-0.07,0.0,101823.044
2022-10-03 7:2:53.9980,0.01,-0.174,-0.952,-0.13,0.16,-1.07,-0.03,-0.08,-0.0,101823.044
2022-10-03 7:2:54.0080,-0.0,-0.174,-0.96,0.23,0.44,-0.38,-0.02,-0.07,0.0,101823.044
2022-10-03 7:2:54.0180,0.017,-0.177,-1.031,0.05,0.38,0.03,-0.04,-0.03,-0.0,101823.044
2022-10-03 7:2:54.0280,0.025,-0.174,-0.976,0.05,0.38,0.03,-0.02,-0.12,0.0,101823.044
2022-10-03 7:2:54.0370,0.034,-0.174,-1.007,-0.05,0.49,0.39,-0.0,0.0,-0.01,101823.044
2022-10-03 7:2:54.0470,0.033,-0.182,-1.009,-0.14,0.33,-0.31,-0.05,-0.11,-0.02,101823.044
2022-10-03 7:2:54.0570,0.029,-0.17,-0.975,-0.21,0.44,0.0,-0.02,-0.06,-0.02,101823.044
2022-10-03 7:2:54.0670,0.017,-0.151,-1.014,0.0,0.26,-0.03,-0.03,-0.04,-0.02,101823.044
2022-10-03 7:2:54.0770,0.028,-0.107,-0.962,-0.12,-0.09,0.02,-0.04,-0.1,-0.01,101823.044
2022-10-03 7:2:54.0870,0.016,-0.13,-0.974,-0.12,-0.09,0.02,-0.04,-0.1,-0.01,101823.044
2022-10-03 7:2:54.0970,0.02,-0.145,-0.938,-0.06,-0.17,-0.31,-0.06,-0.1,-0.01,101823.044
2022-10-03 7:2:54.1070,0.021,-0.126,-0.949,-0.05,0.18,-0.34,-0.05,-0.05,-0.01,101823.044
2022-10-03 7:2:54.1170,0.022,-0.131,-0.95,-0.1,-0.01,-0.53,-0.07,-0.08,-0.01,101823.044
2022-10-03 7:2:54.1270,0.011,-0.132,-0.96,-0.08,-0.02,-0.41,-0.06,-0.06,-0.01,101823.044
2022-10-03 7:2:54.1370,0.012,-0.109,-0.969,-0.04,0.11,-0.36,-0.05,-0.08,-0.01,101823.044
2022-10-03 7:2:54.1470,0.006,-0.14,-0.977,0.0,-0.15,-0.23,-0.05,-0.07,-0.01,101823.151
2022-10-03 7:2:54.1570,0.002,-0.132,-0.985,0.01,-0.03,-0.18,-0.05,-0.05,-0.02,101823.151
2022-10-03 7:2:54.1670,0.01,-0.136,-0.997,0.0,0.06,0.07,-0.06,-0.07,-0.02,101823.151
2022-10-03 7:2:54.1770,0.011,-0.152,-0.997,0.0,0.06,0.07,-0.05,-0.04,-0.02,101823.151
2022-10-03 7:2:54.1860,0.018,-0.139,-0.999,-0.04,0.19,0.02,-0.05,-0.06,-0.02,101823.151
2022-10-03 7:2:54.1960,0.024,-0.121,-1.01,-0.04,0.19,0.02,-0.05,-0.04,-0.02,101823.151
2022-10-03 7:2:54.2060,0.037,-0.119,-0.996,-0.12,0.01,0.14,-0.05,-0.06,-0.02,101823.151
2022-10-03 7:2:54.2160,0.029,-0.112,-0.987,-0.27,-0.12,-0.08,-0.04,-0.04,-0.02,101823.151
2022-10-03 7:2:54.2260,0.013,-0.117,-0.977,-0.27,-0.09,-0.08,-0.05,-0.04,-0.02,101823.151
2022-10-03 7:2:54.2360,0.016,-0.124,-0.957,-0.08,-0.09,-0.08,-0.05,-0.05,-0.02,101823.151
2022-10-03 7:2:54.2460,0.003,-0.107,-0.975,-0.01,-0.06,-0.3,-0.04,-0.03,-0.01,101823.151
2022-10-03 7:2:54.2560,-0.002,-0.089,-0.995,-0.01,-0.06,-0.3,-0.05,-0.03,-0.02,101823.151
2022-10-03 7:2:54.2660,-0.007,-0.109,-0.97,0.07,-0.36,-0.01,-0.05,-0.03,-0.01,101823.151
2022-10-03 7:2:54.2760,0.006,-0.095,-0.999,0.15,-0.13,-0.14,-0.05,-0.01,-0.02,101823.151
2022-10-03 7:2:54.2860,0.01,-0.116,-0.99,0.06,-0.22,-0.11,-0.03,-0.06,-0.02,101823.151
2022-10-03 7:2:54.2960,0.003,-0.116,-1.011,-0.03,-0.09,0.13,-0.02,-0.0,-0.02,101823.151
2022-10-03 7:2:54.3060,0.018,-0.103,-1.012,-0.06,-0.19,-0.01,-0.04,-0.03,-0.02,101823.151
2022-10-03 7:2:54.3150,-0.004,-0.105,-0.995,0.03,-0.1,0.18,-0.03,-0.01,-0.02,101823.151
2022-10-03 7:2:54.3250,-0.003,-0.121,-1.008,-0.08,-0.19,0.12,-0.02,-0.03,-0.02,101823.151
2022-10-03 7:2:54.3350,-0.001,-0.043,-0.98,0.21,0.0,0.11,-0.03,0.04,-0.01,101823.151
2022-10-03 7:2:54.3450,0.052,-0.117,-0.945,-0.15,-0.01,-0.31,-0.05,-0.13,-0.01,101823.151
2022-10-03 7:2:54.3560,0.022,-0.09,-0.939,-0.15,-0.01,-0.31,0.08,0.04,-0.02,101823.151
2022-10-03 7:2:54.3650,-0.011,-0.135,-0.948,0.55,0.16,-1.36,-0.03,-0.04,-0.02,101823.151
2022-10-03 7:2:54.3750,0.057,-0.096,-0.978,-0.6,-0.19,0.17,-0.07,-0.01,-0.01,101823.151
2022-10-03 7:2:54.3850,-0.028,-0.133,-0.97,-0.6,-0.19,0.17,-0.03,-0.05,-0.01,101823.151
2022-10-03 7:2:54.3950,0.033,-0.081,-1.033,0.22,0.07,-0.15,-0.01,0.04,-0.01,101823.151
2022-10-03 7:2:54.4050,0.004,-0.073,-0.987,-0.13,-0.32,-0.05,-0.0,-0.13,0.01,101823.151
2022-10-03 7:2:54.4150,0.051,0.055,-1.083,-0.01,-0.33,0.19,0.0,0.17,-0.02,101823.151
2022-10-03 7:2:54.4250,0.117,-0.13,-0.922,-0.07,-1.45,0.43,-0.04,-0.23,-0.0,101823.151
2022-10-03 7:2:54.4350,0.02,-0.141,-0.944,-0.33,0.19,0.29,0.02,0.08,-0.02,101823.151
2022-10-03 7:2:54.4450,0.025,-0.159,-0.885,-0.25,0.2,-2.39,-0.08,-0.07,-0.02,101823.151
2022-10-03 7:2:54.4550,-0.066,-0.159,-0.996,-0.25,0.2,-2.39,-0.08,-0.03,-0.02,101823.151
2022-10-03 7:2:54.4640,-0.028,-0.145,-0.982,0.44,0.47,0.37,-0.01,0.01,-0.01,101823.151
2022-10-03 7:2:54.4750,0.03,-0.103,-1.003,-0.06,-0.12,-0.15,-0.01,0.01,-0.01,101823.151
2022-10-03 7:2:54.4850,0.055,-0.095,-0.923,-0.06,-0.20465196311473846,-0.2770790845155716,-0.05,-0.02,-0.01,101823.151
2022-10-03 7:2:54.4950,0.029,-0.17,-0.943,-0.48,0.32,-0.49,-0.01,0.01,-0.01,101823.151
2022-10-03 7:2:54.5040,0.014,-0.157,-0.909,-0.01,0.34,-0.81,-0.05,-0.01,-0.02,101823.151
2022-10-03 7:2:54.5150,0.009,-0.183,-0.925,-0.01,0.34,-0.81,-0.06,-0.01,-0.02,101823.151
2022-10-03 7:2:54.5240,0.026,-0.163,-0.989,-0.06,0.62,-0.78,-0.05,0.01,-0.02,101823.151
2022-10-03 7:2:54.5340,-0.005,-0.156,-0.984,-0.23,0.51,-0.25,-0.05,-0.03,-0.02,101823.151
2022-10-03 7:2:54.5450,0.001,-0.161,-0.957,-0.05,0.42,-0.29,-0.05,0.05,-0.02,101823.151
2022-10-03 7:2:54.5540,-0.016,-0.173,-0.897,0.28,0.51,-0.71,-0.07,-0.06,-0.02,101823.151
2022-10-03 7:2:54.5640,-0.0,-0.183,-0.935,0.28,0.51,-0.71,-0.05,0.06,-0.02,101823.151
2022-10-03 7:2:54.5740,-0.011,-0.183,-0.939,0.0,0.64,-0.78,-0.08,-0.03,-0.02,101823.151
2022-10-03 7:2:54.5840,0.006,-0.191,-0.949,0.24,0.67,-0.54,-0.07,0.04,-0.02,101823.151
2022-10-03 7:2:54.5940,-0.007,-0.193,-0.926,-0.03,0.72,-0.43,-0.09,-0.0,-0.02,101823.151
2022-10-03 7:2:54.6030,0.004,-0.191,-0.916,0.031062200255692007,0.8,-0.7,-0.09,0.01,-0.01,101823.151
2022-10-03 7:2:54.6140,0.006,-0.181,-0.935,0.03,0.8,-0.7,-0.09,0.02,0.0,101823.151
2022-10-03 7:2:54.6240,0.016,-0.185,-0.923,-0.07,0.72,-0.61,-0.11,-0.01,-0.0,101823.151
2022-10-03 7:2:54.6340,-0.01,-0.18,-0.938,-0.07,0.72,-0.61,-0.09,0.05,-0.04,101823.151
2022-10-03 7:2:54.6430,-0.014,-0.201,-0.924,0.28,0.82,-0.66,-0.11,0.01,-0.04,101823.151
2022-10-03 7:2:54.6530,0.01,-0.199,-0.942,0.28,0.82,-0.66,-0.11,0.04,-0.04,101823.151
2022-10-03 7:2:54.6630,0.024,-0.156,-0.946,-0.09,0.63,-0.48,-0.12,-0.01,-0.03,101823.151
2022-10-03 7:2:54.6730,0.018,-0.153,-0.967,-0.09,0.63,-0.48,-0.11,0.04,-0.02,101823.151
2022-10-03 7:2:54.6830,0.025,-0.148,-0.956,-0.1,0.48,-0.32,-0.13,0.01,-0.0,101823.151
2022-10-03 7:2:54.6930,0.032,-0.143,-0.948,-0.1,0.48,-0.32,-0.16,0.01,0.01,101823.151
2022-10-03 7:2:54.7030,0.039,-0.162,-0.956,-0.21,0.35,-0.43,-0.16,-0.05,0.04,101823.151
2022-10-03 7:2:54.7130,0.012,-0.169,-0.966,-0.27,0.55,-0.42,-0.12,0.06,0.02,101823.151
2022-10-03 7:2:54.7230,-0.009,-0.16,-0.982,-0.19,0.66,-0.28,-0.12,-0.02,0.01,101823.151
2022-10-03 7:2:54.7330,0.007,-0.162,-1.006,0.19,0.6,-0.22,-0.15,0.09,0.01,101823.151
2022-10-03 7:2:54.7430,0.01,-0.159,-0.988,0.01,0.64,0.17,-0.11,0.04,0.02,101823.151
2022-10-03 7:2:54.7530,0.018,-0.147,-0.893,0.01,0.64,0.17,-0.16,-0.01,0.05,101823.151
2022-10-03 7:2:54.7630,0.023,-0.152,-1.017,-0.03,0.52,-0.77,-0.21,0.1,0.07,101823.151
2022-10-03 7:2:54.7730,0.03,-0.134,-0.976,-0.06,0.52,-0.6,-0.19,0.14,0.06,101823.151
2022-10-03 7:2:54.7830,-0.013,-0.135,-1.032,0.2,0.4,0.02,-0.11,-0.08,0.07,101823.151
2022-10-03 7:2:54.7920,0.038,-0.134,-1.053,-0.11629052124917508,0.4,0.42,-0.09,0.07,0.07,101823.151
2022-10-03 7:2:54.8020,0.014,-0.132,-1.021,-0.12,0.4,0.42,-0.08,0.02,0.09,101823.151
2022-10-03 7:2:54.8120,0.03,-0.148,-0.991,-0.08,0.5,0.03,-0.1,-0.01,0.1,101823.151
2022-10-03 7:2:54.8220,0.024,-0.142,-0.992,-0.2,0.58,-0.11,-0.11,-0.0,0.1,101823.151
2022-10-03 7:2:54.8320,0.015,-0.149,-1.014,0.01,0.54,0.13,-0.13,-0.06,0.13,101823.151
2022-10-03 7:2:54.8420,0.013,-0.152,-1.051,0.01,0.54,0.13,-0.13,0.04,0.13,101823.151
2022-10-03 7:2:54.8520,-0.005,-0.142,-1.018,-0.08,0.66,0.33,-0.08,-0.02,0.15,101823.151
2022-10-03 7:2:54.8620,0.012,-0.156,-1.039,0.15,0.59,0.47,-0.1,-0.04,0.18,101823.151
2022-10-03 7:2:54.8720,0.022,-0.158,-1.007,0.05,0.62,0.22,-0.11,0.03,0.2,101823.151
2022-10-03 7:2:54.8820,0.017,-0.156,-1.03,-0.07,0.73,0.23,-0.1,-0.07,0.2,101823.151
2022-10-03 7:2:54.8920,0.001,-0.14,-1.024,-0.08,0.77,0.37,-0.12,0.02,0.18,101823.151
2022-10-03 7:2:54.9020,-0.013,-0.178,-1.057,0.25,0.8,0.65,-0.12,0.02,0.18,101823.151
2022-10-03 7:2:54.9120,0.02,-0.233,-1.066,0.25,0.8,0.65,-0.09,0.04,0.21,101823.151
2022-10-03 7:2:54.9220,0.037,-0.231,-1.067,-0.24,1.57,0.72,-0.07,0.05,0.22,101823.151
2022-10-03 7:2:54.9320,0.04,-0.225,-1.047,-0.24,1.57,0.72,-0.05,0.05,0.21,101823.151
2022-10-03 7:2:54.9420,0.06,-0.24,-1.06,-0.24,1.41,0.46,-0.06,0.03,0.22,101823.151
2022-10-03 7:2:54.9510,0.088,-0.26,-1.073,-0.64,1.81,0.74,-0.04,0.04,0.19,101823.151
